"Block"	"Trial"	"FaceFilename"	"WordFilename"	"FaceRace"	"Fix"	"WordValence"	"Condition"	"RT"	"Key"	"Error"	"Subno"	"ParRace"	"ParGender"	"Congruent"
2	1	"C:\Experiments\Bartholow Lab\Hannah Volpert\stimuli\Black8.jpg"	"paradise"	"Black"	"forehead"	"Pos"	112	889	5	"0"	101	"W"	"M"	"Incon"
2	2	"C:\Experiments\Bartholow Lab\Hannah Volpert\stimuli\Black24.jpg"	"poison"	"Black"	"forehead"	"Neg"	111	898	4	"0"	101	"W"	"M"	"Con"
2	3	"C:\Experiments\Bartholow Lab\Hannah Volpert\stimuli\White15.jpg"	"success"	"White"	"forehead"	"Pos"	212	750	5	"0"	101	"W"	"M"	"Con"
2	4	"C:\Experiments\Bartholow Lab\Hannah Volpert\stimuli\Black16.jpg"	"disgust"	"Black"	"nose"	"Neg"	131	748	4	"0"	101	"W"	"M"	"Con"
2	5	"C:\Experiments\Bartholow Lab\Hannah Volpert\stimuli\White19.jpg"	"vomit"	"White"	"forehead"	"Neg"	211	1000	4	"0"	101	"W"	"M"	"Incon"
2	6	"C:\Experiments\Bartholow Lab\Hannah Volpert\stimuli\White17.jpg"	"cockroach"	"White"	"eyes"	"Neg"	221	1049	4	"0"	101	"W"	"M"	"Incon"
2	7	"C:\Experiments\Bartholow Lab\Hannah Volpert\stimuli\Black12.jpg"	"despair"	"Black"	"eyes"	"Neg"	121	773	4	"0"	101	"W"	"M"	"Con"
2	8	"C:\Experiments\Bartholow Lab\Hannah Volpert\stimuli\White14.jpg"	"pest"	"White"	"nose"	"Neg"	231	779	4	"0"	101	"W"	"M"	"Incon"
2	9	"C:\Experiments\Bartholow Lab\Hannah Volpert\stimuli\White24.jpg"	"vacation"	"White"	"eyes"	"Pos"	222	921	5	"0"	101	"W"	"M"	"Con"
2	10	"C:\Experiments\Bartholow Lab\Hannah Volpert\stimuli\White16.jpg"	"romance"	"White"	"forehead"	"Pos"	212	728	5	"0"	101	"W"	"M"	"Con"
2	11	"C:\Experiments\Bartholow Lab\Hannah Volpert\stimuli\White14.jpg"	"beauty"	"White"	"eyes"	"Pos"	222	723	5	"0"	101	"W"	"M"	"Con"
2	12	"C:\Experiments\Bartholow Lab\Hannah Volpert\stimuli\White11.jpg"	"vomit"	"White"	"forehead"	"Neg"	211	588	4	"0"	101	"W"	"M"	"Incon"
2	13	"C:\Experiments\Bartholow Lab\Hannah Volpert\stimuli\Black3.jpg"	"smile"	"Black"	"forehead"	"Pos"	112	578	5	"0"	101	"W"	"M"	"Incon"
2	14	"C:\Experiments\Bartholow Lab\Hannah Volpert\stimuli\White11.jpg"	"beauty"	"White"	"eyes"	"Pos"	222	569	5	"0"	101	"W"	"M"	"Con"
2	15	"C:\Experiments\Bartholow Lab\Hannah Volpert\stimuli\White24.jpg"	"pest"	"White"	"nose"	"Neg"	231	948	4	"0"	101	"W"	"M"	"Incon"
2	16	"C:\Experiments\Bartholow Lab\Hannah Volpert\stimuli\White13.jpg"	"smile"	"White"	"forehead"	"Pos"	212	677	5	"0"	101	"W"	"M"	"Con"
2	17	"C:\Experiments\Bartholow Lab\Hannah Volpert\stimuli\Black16.jpg"	"romance"	"Black"	"eyes"	"Pos"	122	510	5	"0"	101	"W"	"M"	"Incon"
2	18	"C:\Experiments\Bartholow Lab\Hannah Volpert\stimuli\White2.jpg"	"love"	"White"	"forehead"	"Pos"	212	535	5	"0"	101	"W"	"M"	"Con"
2	19	"C:\Experiments\Bartholow Lab\Hannah Volpert\stimuli\Black4.jpg"	"disgust"	"Black"	"forehead"	"Neg"	111	555	4	"0"	101	"W"	"M"	"Con"
2	20	"C:\Experiments\Bartholow Lab\Hannah Volpert\stimuli\White9.jpg"	"romance"	"White"	"eyes"	"Pos"	222	606	5	"0"	101	"W"	"M"	"Con"
2	21	"C:\Experiments\Bartholow Lab\Hannah Volpert\stimuli\White1.jpg"	"smile"	"White"	"nose"	"Pos"	232	589	5	"0"	101	"W"	"M"	"Con"
2	22	"C:\Experiments\Bartholow Lab\Hannah Volpert\stimuli\White2.jpg"	"despair"	"White"	"nose"	"Neg"	231	741	4	"0"	101	"W"	"M"	"Incon"
2	23	"C:\Experiments\Bartholow Lab\Hannah Volpert\stimuli\White21.jpg"	"poison"	"White"	"forehead"	"Neg"	211	721	4	"0"	101	"W"	"M"	"Incon"
2	24	"C:\Experiments\Bartholow Lab\Hannah Volpert\stimuli\White20.jpg"	"paradise"	"White"	"eyes"	"Pos"	222	655	5	"0"	101	"W"	"M"	"Con"
2	25	"C:\Experiments\Bartholow Lab\Hannah Volpert\stimuli\Black15.jpg"	"smile"	"Black"	"forehead"	"Pos"	112	566	5	"0"	101	"W"	"M"	"Incon"
2	26	"C:\Experiments\Bartholow Lab\Hannah Volpert\stimuli\White22.jpg"	"vomit"	"White"	"nose"	"Neg"	231	550	5	"1"	101	"W"	"M"	"Incon"
2	27	"C:\Experiments\Bartholow Lab\Hannah Volpert\stimuli\Black3.jpg"	"smile"	"Black"	"nose"	"Pos"	132	1074	5	"0"	101	"W"	"M"	"Incon"
2	28	"C:\Experiments\Bartholow Lab\Hannah Volpert\stimuli\Black21.jpg"	"smile"	"Black"	"eyes"	"Pos"	122	643	5	"0"	101	"W"	"M"	"Incon"
2	29	"C:\Experiments\Bartholow Lab\Hannah Volpert\stimuli\Black22.jpg"	"paradise"	"Black"	"eyes"	"Pos"	122	633	5	"0"	101	"W"	"M"	"Incon"
2	30	"C:\Experiments\Bartholow Lab\Hannah Volpert\stimuli\White12.jpg"	"sewage"	"White"	"forehead"	"Neg"	211	762	4	"0"	101	"W"	"M"	"Incon"
2	31	"C:\Experiments\Bartholow Lab\Hannah Volpert\stimuli\Black13.jpg"	"paradise"	"Black"	"eyes"	"Pos"	122	600	5	"0"	101	"W"	"M"	"Incon"
2	32	"C:\Experiments\Bartholow Lab\Hannah Volpert\stimuli\White16.jpg"	"garbage"	"White"	"forehead"	"Neg"	211	836	4	"0"	101	"W"	"M"	"Incon"
2	33	"C:\Experiments\Bartholow Lab\Hannah Volpert\stimuli\White12.jpg"	"disgust"	"White"	"nose"	"Neg"	231	669	4	"0"	101	"W"	"M"	"Incon"
2	34	"C:\Experiments\Bartholow Lab\Hannah Volpert\stimuli\Black1.jpg"	"paradise"	"Black"	"forehead"	"Pos"	112	1571	5	"0"	101	"W"	"M"	"Incon"
2	35	"C:\Experiments\Bartholow Lab\Hannah Volpert\stimuli\Black23.jpg"	"joy"	"Black"	"eyes"	"Pos"	122	642	5	"0"	101	"W"	"M"	"Incon"
2	36	"C:\Experiments\Bartholow Lab\Hannah Volpert\stimuli\Black1.jpg"	"despair"	"Black"	"eyes"	"Neg"	121	576	4	"0"	101	"W"	"M"	"Con"
2	37	"C:\Experiments\Bartholow Lab\Hannah Volpert\stimuli\White3.jpg"	"disgust"	"White"	"forehead"	"Neg"	211	582	4	"0"	101	"W"	"M"	"Incon"
2	38	"C:\Experiments\Bartholow Lab\Hannah Volpert\stimuli\Black6.jpg"	"garbage"	"Black"	"eyes"	"Neg"	121	751	4	"0"	101	"W"	"M"	"Con"
2	39	"C:\Experiments\Bartholow Lab\Hannah Volpert\stimuli\Black2.jpg"	"vacation"	"Black"	"eyes"	"Pos"	122	635	5	"0"	101	"W"	"M"	"Incon"
2	40	"C:\Experiments\Bartholow Lab\Hannah Volpert\stimuli\Black13.jpg"	"garbage"	"Black"	"eyes"	"Neg"	121	686	4	"0"	101	"W"	"M"	"Con"
2	41	"C:\Experiments\Bartholow Lab\Hannah Volpert\stimuli\White23.jpg"	"success"	"White"	"eyes"	"Pos"	222	516	5	"0"	101	"W"	"M"	"Con"
2	42	"C:\Experiments\Bartholow Lab\Hannah Volpert\stimuli\White10.jpg"	"disgust"	"White"	"forehead"	"Neg"	211	768	4	"0"	101	"W"	"M"	"Incon"
2	43	"C:\Experiments\Bartholow Lab\Hannah Volpert\stimuli\White2.jpg"	"paradise"	"White"	"eyes"	"Pos"	222	681	5	"0"	101	"W"	"M"	"Con"
2	44	"C:\Experiments\Bartholow Lab\Hannah Volpert\stimuli\Black11.jpg"	"success"	"Black"	"nose"	"Pos"	132	594	5	"0"	101	"W"	"M"	"Incon"
2	45	"C:\Experiments\Bartholow Lab\Hannah Volpert\stimuli\White10.jpg"	"garbage"	"White"	"nose"	"Neg"	231	651	4	"0"	101	"W"	"M"	"Incon"
2	46	"C:\Experiments\Bartholow Lab\Hannah Volpert\stimuli\Black16.jpg"	"cockroach"	"Black"	"eyes"	"Neg"	121	622	4	"0"	101	"W"	"M"	"Con"
2	47	"C:\Experiments\Bartholow Lab\Hannah Volpert\stimuli\White17.jpg"	"love"	"White"	"eyes"	"Pos"	222	559	5	"0"	101	"W"	"M"	"Con"
2	48	"C:\Experiments\Bartholow Lab\Hannah Volpert\stimuli\White19.jpg"	"romance"	"White"	"forehead"	"Pos"	212	565	5	"0"	101	"W"	"M"	"Con"
2	49	"C:\Experiments\Bartholow Lab\Hannah Volpert\stimuli\White8.jpg"	"beauty"	"White"	"forehead"	"Pos"	212	556	5	"0"	101	"W"	"M"	"Con"
2	50	"C:\Experiments\Bartholow Lab\Hannah Volpert\stimuli\Black15.jpg"	"despair"	"Black"	"eyes"	"Neg"	121	557	4	"0"	101	"W"	"M"	"Con"
2	51	"C:\Experiments\Bartholow Lab\Hannah Volpert\stimuli\Black17.jpg"	"paradise"	"Black"	"nose"	"Pos"	132	539	5	"0"	101	"W"	"M"	"Incon"
2	52	"C:\Experiments\Bartholow Lab\Hannah Volpert\stimuli\White23.jpg"	"poison"	"White"	"forehead"	"Neg"	211	593	4	"0"	101	"W"	"M"	"Incon"
2	53	"C:\Experiments\Bartholow Lab\Hannah Volpert\stimuli\Black4.jpg"	"pest"	"Black"	"eyes"	"Neg"	121	717	4	"0"	101	"W"	"M"	"Con"
2	54	"C:\Experiments\Bartholow Lab\Hannah Volpert\stimuli\Black9.jpg"	"garbage"	"Black"	"forehead"	"Neg"	111	608	4	"0"	101	"W"	"M"	"Con"
2	55	"C:\Experiments\Bartholow Lab\Hannah Volpert\stimuli\White7.jpg"	"poison"	"White"	"forehead"	"Neg"	211	670	4	"0"	101	"W"	"M"	"Incon"
2	56	"C:\Experiments\Bartholow Lab\Hannah Volpert\stimuli\Black10.jpg"	"beauty"	"Black"	"nose"	"Pos"	132	826	5	"0"	101	"W"	"M"	"Incon"
2	57	"C:\Experiments\Bartholow Lab\Hannah Volpert\stimuli\White16.jpg"	"joy"	"White"	"eyes"	"Pos"	222	563	5	"0"	101	"W"	"M"	"Con"
2	58	"C:\Experiments\Bartholow Lab\Hannah Volpert\stimuli\White7.jpg"	"disgust"	"White"	"eyes"	"Neg"	221	777	4	"0"	101	"W"	"M"	"Incon"
2	59	"C:\Experiments\Bartholow Lab\Hannah Volpert\stimuli\White6.jpg"	"joy"	"White"	"eyes"	"Pos"	222	522	5	"0"	101	"W"	"M"	"Con"
2	60	"C:\Experiments\Bartholow Lab\Hannah Volpert\stimuli\Black19.jpg"	"vacation"	"Black"	"eyes"	"Pos"	122	517	5	"0"	101	"W"	"M"	"Incon"
2	61	"C:\Experiments\Bartholow Lab\Hannah Volpert\stimuli\Black23.jpg"	"cockroach"	"Black"	"forehead"	"Neg"	111	510	4	"0"	101	"W"	"M"	"Con"
2	62	"C:\Experiments\Bartholow Lab\Hannah Volpert\stimuli\White18.jpg"	"beauty"	"White"	"eyes"	"Pos"	222	541	5	"0"	101	"W"	"M"	"Con"
2	63	"C:\Experiments\Bartholow Lab\Hannah Volpert\stimuli\Black7.jpg"	"vacation"	"Black"	"nose"	"Pos"	132	475	5	"0"	101	"W"	"M"	"Incon"
2	64	"C:\Experiments\Bartholow Lab\Hannah Volpert\stimuli\Black14.jpg"	"vacation"	"Black"	"nose"	"Pos"	132	604	5	"0"	101	"W"	"M"	"Incon"
2	65	"C:\Experiments\Bartholow Lab\Hannah Volpert\stimuli\Black1.jpg"	"love"	"Black"	"nose"	"Pos"	132	514	5	"0"	101	"W"	"M"	"Incon"
2	66	"C:\Experiments\Bartholow Lab\Hannah Volpert\stimuli\Black20.jpg"	"sewage"	"Black"	"nose"	"Neg"	131	736	4	"0"	101	"W"	"M"	"Con"
2	67	"C:\Experiments\Bartholow Lab\Hannah Volpert\stimuli\White13.jpg"	"joy"	"White"	"eyes"	"Pos"	222	521	5	"0"	101	"W"	"M"	"Con"
2	68	"C:\Experiments\Bartholow Lab\Hannah Volpert\stimuli\Black10.jpg"	"vacation"	"Black"	"eyes"	"Pos"	122	773	5	"0"	101	"W"	"M"	"Incon"
2	69	"C:\Experiments\Bartholow Lab\Hannah Volpert\stimuli\White4.jpg"	"romance"	"White"	"eyes"	"Pos"	222	533	5	"0"	101	"W"	"M"	"Con"
2	70	"C:\Experiments\Bartholow Lab\Hannah Volpert\stimuli\White11.jpg"	"paradise"	"White"	"nose"	"Pos"	232	580	5	"0"	101	"W"	"M"	"Con"
2	71	"C:\Experiments\Bartholow Lab\Hannah Volpert\stimuli\White2.jpg"	"pest"	"White"	"eyes"	"Neg"	221	554	4	"0"	101	"W"	"M"	"Incon"
2	72	"C:\Experiments\Bartholow Lab\Hannah Volpert\stimuli\White6.jpg"	"poison"	"White"	"forehead"	"Neg"	211	747	4	"0"	101	"W"	"M"	"Incon"
2	73	"C:\Experiments\Bartholow Lab\Hannah Volpert\stimuli\White18.jpg"	"despair"	"White"	"eyes"	"Neg"	221	715	4	"0"	101	"W"	"M"	"Incon"
2	74	"C:\Experiments\Bartholow Lab\Hannah Volpert\stimuli\White4.jpg"	"smile"	"White"	"nose"	"Pos"	232	508	5	"0"	101	"W"	"M"	"Con"
2	75	"C:\Experiments\Bartholow Lab\Hannah Volpert\stimuli\White7.jpg"	"cockroach"	"White"	"nose"	"Neg"	231	581	4	"0"	101	"W"	"M"	"Incon"
2	76	"C:\Experiments\Bartholow Lab\Hannah Volpert\stimuli\Black7.jpg"	"poison"	"Black"	"forehead"	"Neg"	111	747	4	"0"	101	"W"	"M"	"Con"
2	77	"C:\Experiments\Bartholow Lab\Hannah Volpert\stimuli\Black14.jpg"	"vacation"	"Black"	"forehead"	"Pos"	112	583	5	"0"	101	"W"	"M"	"Incon"
2	78	"C:\Experiments\Bartholow Lab\Hannah Volpert\stimuli\Black16.jpg"	"sewage"	"Black"	"forehead"	"Neg"	111	605	4	"0"	101	"W"	"M"	"Con"
2	79	"C:\Experiments\Bartholow Lab\Hannah Volpert\stimuli\Black22.jpg"	"pest"	"Black"	"forehead"	"Neg"	111	601	4	"0"	101	"W"	"M"	"Con"
2	80	"C:\Experiments\Bartholow Lab\Hannah Volpert\stimuli\Black17.jpg"	"poison"	"Black"	"eyes"	"Neg"	121	498	4	"0"	101	"W"	"M"	"Con"
2	81	"C:\Experiments\Bartholow Lab\Hannah Volpert\stimuli\Black19.jpg"	"vacation"	"Black"	"nose"	"Pos"	132	552	5	"0"	101	"W"	"M"	"Incon"
2	82	"C:\Experiments\Bartholow Lab\Hannah Volpert\stimuli\White6.jpg"	"vomit"	"White"	"eyes"	"Neg"	221	681	4	"0"	101	"W"	"M"	"Incon"
2	83	"C:\Experiments\Bartholow Lab\Hannah Volpert\stimuli\Black12.jpg"	"pest"	"Black"	"forehead"	"Neg"	111	532	4	"0"	101	"W"	"M"	"Con"
2	84	"C:\Experiments\Bartholow Lab\Hannah Volpert\stimuli\White21.jpg"	"cockroach"	"White"	"eyes"	"Neg"	221	501	4	"0"	101	"W"	"M"	"Incon"
2	85	"C:\Experiments\Bartholow Lab\Hannah Volpert\stimuli\Black6.jpg"	"poison"	"Black"	"forehead"	"Neg"	111	553	4	"0"	101	"W"	"M"	"Con"
2	86	"C:\Experiments\Bartholow Lab\Hannah Volpert\stimuli\White23.jpg"	"despair"	"White"	"nose"	"Neg"	231	737	4	"0"	101	"W"	"M"	"Incon"
2	87	"C:\Experiments\Bartholow Lab\Hannah Volpert\stimuli\Black24.jpg"	"vacation"	"Black"	"forehead"	"Pos"	112	573	5	"0"	101	"W"	"M"	"Incon"
2	88	"C:\Experiments\Bartholow Lab\Hannah Volpert\stimuli\Black2.jpg"	"disgust"	"Black"	"nose"	"Neg"	131	547	4	"0"	101	"W"	"M"	"Con"
2	89	"C:\Experiments\Bartholow Lab\Hannah Volpert\stimuli\White22.jpg"	"paradise"	"White"	"nose"	"Pos"	232	756	5	"0"	101	"W"	"M"	"Con"
2	90	"C:\Experiments\Bartholow Lab\Hannah Volpert\stimuli\White15.jpg"	"despair"	"White"	"eyes"	"Neg"	221	589	4	"0"	101	"W"	"M"	"Incon"
2	91	"C:\Experiments\Bartholow Lab\Hannah Volpert\stimuli\White15.jpg"	"disgust"	"White"	"forehead"	"Neg"	211	534	4	"0"	101	"W"	"M"	"Incon"
2	92	"C:\Experiments\Bartholow Lab\Hannah Volpert\stimuli\Black7.jpg"	"sewage"	"Black"	"eyes"	"Neg"	121	612	4	"0"	101	"W"	"M"	"Con"
2	93	"C:\Experiments\Bartholow Lab\Hannah Volpert\stimuli\Black13.jpg"	"sewage"	"Black"	"nose"	"Neg"	131	578	4	"0"	101	"W"	"M"	"Con"
2	94	"C:\Experiments\Bartholow Lab\Hannah Volpert\stimuli\White12.jpg"	"beauty"	"White"	"forehead"	"Pos"	212	505	5	"0"	101	"W"	"M"	"Con"
2	95	"C:\Experiments\Bartholow Lab\Hannah Volpert\stimuli\Black12.jpg"	"vomit"	"Black"	"nose"	"Neg"	131	495	5	"1"	101	"W"	"M"	"Con"
2	96	"C:\Experiments\Bartholow Lab\Hannah Volpert\stimuli\Black1.jpg"	"vomit"	"Black"	"forehead"	"Neg"	111	962	4	"0"	101	"W"	"M"	"Con"
2	97	"C:\Experiments\Bartholow Lab\Hannah Volpert\stimuli\White23.jpg"	"garbage"	"White"	"eyes"	"Neg"	221	574	4	"0"	101	"W"	"M"	"Incon"
2	98	"C:\Experiments\Bartholow Lab\Hannah Volpert\stimuli\Black11.jpg"	"disgust"	"Black"	"nose"	"Neg"	131	527	4	"0"	101	"W"	"M"	"Con"
2	99	"C:\Experiments\Bartholow Lab\Hannah Volpert\stimuli\Black5.jpg"	"vacation"	"Black"	"eyes"	"Pos"	122	685	5	"0"	101	"W"	"M"	"Incon"
2	100	"C:\Experiments\Bartholow Lab\Hannah Volpert\stimuli\Black21.jpg"	"poison"	"Black"	"forehead"	"Neg"	111	574	4	"0"	101	"W"	"M"	"Con"
2	101	"C:\Experiments\Bartholow Lab\Hannah Volpert\stimuli\Black8.jpg"	"success"	"Black"	"nose"	"Pos"	132	788	5	"0"	101	"W"	"M"	"Incon"
2	102	"C:\Experiments\Bartholow Lab\Hannah Volpert\stimuli\Black18.jpg"	"vomit"	"Black"	"nose"	"Neg"	131	629	4	"0"	101	"W"	"M"	"Con"
2	103	"C:\Experiments\Bartholow Lab\Hannah Volpert\stimuli\White19.jpg"	"success"	"White"	"eyes"	"Pos"	222	953	5	"0"	101	"W"	"M"	"Con"
2	104	"C:\Experiments\Bartholow Lab\Hannah Volpert\stimuli\White22.jpg"	"cockroach"	"White"	"eyes"	"Neg"	221	650	4	"0"	101	"W"	"M"	"Incon"
2	105	"C:\Experiments\Bartholow Lab\Hannah Volpert\stimuli\White13.jpg"	"cockroach"	"White"	"forehead"	"Neg"	211	651	4	"0"	101	"W"	"M"	"Incon"
2	106	"C:\Experiments\Bartholow Lab\Hannah Volpert\stimuli\White21.jpg"	"vomit"	"White"	"nose"	"Neg"	231	580	4	"0"	101	"W"	"M"	"Incon"
2	107	"C:\Experiments\Bartholow Lab\Hannah Volpert\stimuli\White24.jpg"	"sewage"	"White"	"forehead"	"Neg"	211	682	4	"0"	101	"W"	"M"	"Incon"
2	108	"C:\Experiments\Bartholow Lab\Hannah Volpert\stimuli\White18.jpg"	"smile"	"White"	"forehead"	"Pos"	212	747	5	"0"	101	"W"	"M"	"Con"
2	109	"C:\Experiments\Bartholow Lab\Hannah Volpert\stimuli\Black7.jpg"	"smile"	"Black"	"eyes"	"Pos"	122	516	5	"0"	101	"W"	"M"	"Incon"
2	110	"C:\Experiments\Bartholow Lab\Hannah Volpert\stimuli\Black11.jpg"	"success"	"Black"	"eyes"	"Pos"	122	599	5	"0"	101	"W"	"M"	"Incon"
2	111	"C:\Experiments\Bartholow Lab\Hannah Volpert\stimuli\White7.jpg"	"success"	"White"	"nose"	"Pos"	232	691	5	"0"	101	"W"	"M"	"Con"
2	112	"C:\Experiments\Bartholow Lab\Hannah Volpert\stimuli\White10.jpg"	"joy"	"White"	"nose"	"Pos"	232	590	5	"0"	101	"W"	"M"	"Con"
2	113	"C:\Experiments\Bartholow Lab\Hannah Volpert\stimuli\Black1.jpg"	"romance"	"Black"	"eyes"	"Pos"	122	594	5	"0"	101	"W"	"M"	"Incon"
2	114	"C:\Experiments\Bartholow Lab\Hannah Volpert\stimuli\White15.jpg"	"vomit"	"White"	"nose"	"Neg"	231	683	4	"0"	101	"W"	"M"	"Incon"
2	115	"C:\Experiments\Bartholow Lab\Hannah Volpert\stimuli\Black19.jpg"	"disgust"	"Black"	"eyes"	"Neg"	121	966	4	"0"	101	"W"	"M"	"Con"
2	116	"C:\Experiments\Bartholow Lab\Hannah Volpert\stimuli\White3.jpg"	"garbage"	"White"	"eyes"	"Neg"	221	970	4	"0"	101	"W"	"M"	"Incon"
2	117	"C:\Experiments\Bartholow Lab\Hannah Volpert\stimuli\White15.jpg"	"love"	"White"	"eyes"	"Pos"	222	606	5	"0"	101	"W"	"M"	"Con"
2	118	"C:\Experiments\Bartholow Lab\Hannah Volpert\stimuli\White5.jpg"	"beauty"	"White"	"nose"	"Pos"	232	556	5	"0"	101	"W"	"M"	"Con"
2	119	"C:\Experiments\Bartholow Lab\Hannah Volpert\stimuli\Black4.jpg"	"romance"	"Black"	"nose"	"Pos"	132	639	5	"0"	101	"W"	"M"	"Incon"
2	120	"C:\Experiments\Bartholow Lab\Hannah Volpert\stimuli\Black3.jpg"	"joy"	"Black"	"eyes"	"Pos"	122	494	5	"0"	101	"W"	"M"	"Incon"
2	121	"C:\Experiments\Bartholow Lab\Hannah Volpert\stimuli\Black3.jpg"	"sewage"	"Black"	"nose"	"Neg"	131	663	4	"0"	101	"W"	"M"	"Con"
2	122	"C:\Experiments\Bartholow Lab\Hannah Volpert\stimuli\White10.jpg"	"paradise"	"White"	"forehead"	"Pos"	212	733	5	"0"	101	"W"	"M"	"Con"
2	123	"C:\Experiments\Bartholow Lab\Hannah Volpert\stimuli\Black20.jpg"	"paradise"	"Black"	"nose"	"Pos"	132	822	5	"0"	101	"W"	"M"	"Incon"
2	124	"C:\Experiments\Bartholow Lab\Hannah Volpert\stimuli\Black24.jpg"	"romance"	"Black"	"nose"	"Pos"	132	639	5	"0"	101	"W"	"M"	"Incon"
2	125	"C:\Experiments\Bartholow Lab\Hannah Volpert\stimuli\Black9.jpg"	"love"	"Black"	"forehead"	"Pos"	112	608	5	"0"	101	"W"	"M"	"Incon"
2	126	"C:\Experiments\Bartholow Lab\Hannah Volpert\stimuli\White5.jpg"	"sewage"	"White"	"eyes"	"Neg"	221	524	4	"0"	101	"W"	"M"	"Incon"
2	127	"C:\Experiments\Bartholow Lab\Hannah Volpert\stimuli\Black24.jpg"	"despair"	"Black"	"eyes"	"Neg"	121	602	4	"0"	101	"W"	"M"	"Con"
2	128	"C:\Experiments\Bartholow Lab\Hannah Volpert\stimuli\Black6.jpg"	"success"	"Black"	"forehead"	"Pos"	112	565	5	"0"	101	"W"	"M"	"Incon"
2	129	"C:\Experiments\Bartholow Lab\Hannah Volpert\stimuli\Black17.jpg"	"pest"	"Black"	"nose"	"Neg"	131	582	4	"0"	101	"W"	"M"	"Con"
2	130	"C:\Experiments\Bartholow Lab\Hannah Volpert\stimuli\Black2.jpg"	"beauty"	"Black"	"nose"	"Pos"	132	604	5	"0"	101	"W"	"M"	"Incon"
2	131	"C:\Experiments\Bartholow Lab\Hannah Volpert\stimuli\Black16.jpg"	"paradise"	"Black"	"nose"	"Pos"	132	635	5	"0"	101	"W"	"M"	"Incon"
2	132	"C:\Experiments\Bartholow Lab\Hannah Volpert\stimuli\White4.jpg"	"pest"	"White"	"forehead"	"Neg"	211	612	4	"0"	101	"W"	"M"	"Incon"
2	133	"C:\Experiments\Bartholow Lab\Hannah Volpert\stimuli\White17.jpg"	"paradise"	"White"	"nose"	"Pos"	232	562	5	"0"	101	"W"	"M"	"Con"
2	134	"C:\Experiments\Bartholow Lab\Hannah Volpert\stimuli\Black9.jpg"	"romance"	"Black"	"nose"	"Pos"	132	566	5	"0"	101	"W"	"M"	"Incon"
2	135	"C:\Experiments\Bartholow Lab\Hannah Volpert\stimuli\White11.jpg"	"pest"	"White"	"eyes"	"Neg"	221	620	4	"0"	101	"W"	"M"	"Incon"
2	136	"C:\Experiments\Bartholow Lab\Hannah Volpert\stimuli\White14.jpg"	"poison"	"White"	"eyes"	"Neg"	221	655	4	"0"	101	"W"	"M"	"Incon"
2	137	"C:\Experiments\Bartholow Lab\Hannah Volpert\stimuli\White12.jpg"	"love"	"White"	"eyes"	"Pos"	222	710	5	"0"	101	"W"	"M"	"Con"
2	138	"C:\Experiments\Bartholow Lab\Hannah Volpert\stimuli\Black5.jpg"	"vomit"	"Black"	"nose"	"Neg"	131	615	4	"0"	101	"W"	"M"	"Con"
2	139	"C:\Experiments\Bartholow Lab\Hannah Volpert\stimuli\Black2.jpg"	"pest"	"Black"	"forehead"	"Neg"	111	837	4	"0"	101	"W"	"M"	"Con"
2	140	"C:\Experiments\Bartholow Lab\Hannah Volpert\stimuli\White8.jpg"	"vacation"	"White"	"nose"	"Pos"	232	766	5	"0"	101	"W"	"M"	"Con"
2	141	"C:\Experiments\Bartholow Lab\Hannah Volpert\stimuli\White4.jpg"	"vacation"	"White"	"forehead"	"Pos"	212	697	5	"0"	101	"W"	"M"	"Con"
2	142	"C:\Experiments\Bartholow Lab\Hannah Volpert\stimuli\White23.jpg"	"joy"	"White"	"nose"	"Pos"	232	960	5	"0"	101	"W"	"M"	"Con"
2	143	"C:\Experiments\Bartholow Lab\Hannah Volpert\stimuli\White3.jpg"	"romance"	"White"	"eyes"	"Pos"	222	611	5	"0"	101	"W"	"M"	"Con"
2	144	"C:\Experiments\Bartholow Lab\Hannah Volpert\stimuli\White1.jpg"	"vomit"	"White"	"forehead"	"Neg"	211	655	4	"0"	101	"W"	"M"	"Incon"
2	145	"C:\Experiments\Bartholow Lab\Hannah Volpert\stimuli\White5.jpg"	"garbage"	"White"	"forehead"	"Neg"	211	937	4	"0"	101	"W"	"M"	"Incon"
2	146	"C:\Experiments\Bartholow Lab\Hannah Volpert\stimuli\White5.jpg"	"vomit"	"White"	"nose"	"Neg"	231	519	4	"0"	101	"W"	"M"	"Incon"
2	147	"C:\Experiments\Bartholow Lab\Hannah Volpert\stimuli\Black18.jpg"	"sewage"	"Black"	"forehead"	"Neg"	111	515	4	"0"	101	"W"	"M"	"Con"
2	148	"C:\Experiments\Bartholow Lab\Hannah Volpert\stimuli\White1.jpg"	"sewage"	"White"	"nose"	"Neg"	231	492	4	"0"	101	"W"	"M"	"Incon"
2	149	"C:\Experiments\Bartholow Lab\Hannah Volpert\stimuli\White6.jpg"	"sewage"	"White"	"nose"	"Neg"	231	415	4	"0"	101	"W"	"M"	"Incon"
2	150	"C:\Experiments\Bartholow Lab\Hannah Volpert\stimuli\White14.jpg"	"romance"	"White"	"forehead"	"Pos"	212	683	5	"0"	101	"W"	"M"	"Con"
2	151	"C:\Experiments\Bartholow Lab\Hannah Volpert\stimuli\Black6.jpg"	"beauty"	"Black"	"eyes"	"Pos"	122	550	5	"0"	101	"W"	"M"	"Incon"
2	152	"C:\Experiments\Bartholow Lab\Hannah Volpert\stimuli\Black15.jpg"	"love"	"Black"	"nose"	"Pos"	132	519	5	"0"	101	"W"	"M"	"Incon"
2	153	"C:\Experiments\Bartholow Lab\Hannah Volpert\stimuli\White17.jpg"	"vacation"	"White"	"forehead"	"Pos"	212	501	5	"0"	101	"W"	"M"	"Con"
2	154	"C:\Experiments\Bartholow Lab\Hannah Volpert\stimuli\White5.jpg"	"paradise"	"White"	"forehead"	"Pos"	212	587	5	"0"	101	"W"	"M"	"Con"
2	155	"C:\Experiments\Bartholow Lab\Hannah Volpert\stimuli\Black16.jpg"	"success"	"Black"	"forehead"	"Pos"	112	498	5	"0"	101	"W"	"M"	"Incon"
2	156	"C:\Experiments\Bartholow Lab\Hannah Volpert\stimuli\White6.jpg"	"love"	"White"	"forehead"	"Pos"	212	789	5	"0"	101	"W"	"M"	"Con"
2	157	"C:\Experiments\Bartholow Lab\Hannah Volpert\stimuli\Black8.jpg"	"romance"	"Black"	"eyes"	"Pos"	122	502	5	"0"	101	"W"	"M"	"Incon"
2	158	"C:\Experiments\Bartholow Lab\Hannah Volpert\stimuli\White20.jpg"	"pest"	"White"	"forehead"	"Neg"	211	580	4	"0"	101	"W"	"M"	"Incon"
2	159	"C:\Experiments\Bartholow Lab\Hannah Volpert\stimuli\White19.jpg"	"success"	"White"	"nose"	"Pos"	232	525	5	"0"	101	"W"	"M"	"Con"
2	160	"C:\Experiments\Bartholow Lab\Hannah Volpert\stimuli\White20.jpg"	"disgust"	"White"	"eyes"	"Neg"	221	545	4	"0"	101	"W"	"M"	"Incon"
2	161	"C:\Experiments\Bartholow Lab\Hannah Volpert\stimuli\Black15.jpg"	"beauty"	"Black"	"eyes"	"Pos"	122	591	5	"0"	101	"W"	"M"	"Incon"
2	162	"C:\Experiments\Bartholow Lab\Hannah Volpert\stimuli\White17.jpg"	"disgust"	"White"	"nose"	"Neg"	231	504	4	"0"	101	"W"	"M"	"Incon"
2	163	"C:\Experiments\Bartholow Lab\Hannah Volpert\stimuli\White23.jpg"	"love"	"White"	"forehead"	"Pos"	212	518	5	"0"	101	"W"	"M"	"Con"
2	164	"C:\Experiments\Bartholow Lab\Hannah Volpert\stimuli\Black23.jpg"	"beauty"	"Black"	"forehead"	"Pos"	112	495	5	"0"	101	"W"	"M"	"Incon"
2	165	"C:\Experiments\Bartholow Lab\Hannah Volpert\stimuli\White7.jpg"	"smile"	"White"	"forehead"	"Pos"	212	645	5	"0"	101	"W"	"M"	"Con"
2	166	"C:\Experiments\Bartholow Lab\Hannah Volpert\stimuli\Black2.jpg"	"poison"	"Black"	"eyes"	"Neg"	121	537	4	"0"	101	"W"	"M"	"Con"
2	167	"C:\Experiments\Bartholow Lab\Hannah Volpert\stimuli\Black2.jpg"	"success"	"Black"	"forehead"	"Pos"	112	580	5	"0"	101	"W"	"M"	"Incon"
2	168	"C:\Experiments\Bartholow Lab\Hannah Volpert\stimuli\Black15.jpg"	"vomit"	"Black"	"forehead"	"Neg"	111	490	4	"0"	101	"W"	"M"	"Con"
2	169	"C:\Experiments\Bartholow Lab\Hannah Volpert\stimuli\White18.jpg"	"garbage"	"White"	"nose"	"Neg"	231	499	4	"0"	101	"W"	"M"	"Incon"
2	170	"C:\Experiments\Bartholow Lab\Hannah Volpert\stimuli\White8.jpg"	"love"	"White"	"eyes"	"Pos"	222	535	5	"0"	101	"W"	"M"	"Con"
2	171	"C:\Experiments\Bartholow Lab\Hannah Volpert\stimuli\Black8.jpg"	"despair"	"Black"	"forehead"	"Neg"	111	725	4	"0"	101	"W"	"M"	"Con"
2	172	"C:\Experiments\Bartholow Lab\Hannah Volpert\stimuli\Black4.jpg"	"garbage"	"Black"	"nose"	"Neg"	131	715	4	"0"	101	"W"	"M"	"Con"
2	173	"C:\Experiments\Bartholow Lab\Hannah Volpert\stimuli\Black5.jpg"	"cockroach"	"Black"	"forehead"	"Neg"	111	524	4	"0"	101	"W"	"M"	"Con"
2	174	"C:\Experiments\Bartholow Lab\Hannah Volpert\stimuli\White20.jpg"	"romance"	"White"	"forehead"	"Pos"	212	464	5	"0"	101	"W"	"M"	"Con"
2	175	"C:\Experiments\Bartholow Lab\Hannah Volpert\stimuli\Black12.jpg"	"joy"	"Black"	"eyes"	"Pos"	122	782	5	"0"	101	"W"	"M"	"Incon"
2	176	"C:\Experiments\Bartholow Lab\Hannah Volpert\stimuli\Black10.jpg"	"poison"	"Black"	"nose"	"Neg"	131	588	4	"0"	101	"W"	"M"	"Con"
2	177	"C:\Experiments\Bartholow Lab\Hannah Volpert\stimuli\White15.jpg"	"vacation"	"White"	"nose"	"Pos"	232	613	5	"0"	101	"W"	"M"	"Con"
2	178	"C:\Experiments\Bartholow Lab\Hannah Volpert\stimuli\White9.jpg"	"success"	"White"	"forehead"	"Pos"	212	579	5	"0"	101	"W"	"M"	"Con"
2	179	"C:\Experiments\Bartholow Lab\Hannah Volpert\stimuli\White24.jpg"	"romance"	"White"	"forehead"	"Pos"	212	553	5	"0"	101	"W"	"M"	"Con"
2	180	"C:\Experiments\Bartholow Lab\Hannah Volpert\stimuli\Black21.jpg"	"vomit"	"Black"	"eyes"	"Neg"	121	640	4	"0"	101	"W"	"M"	"Con"
2	181	"C:\Experiments\Bartholow Lab\Hannah Volpert\stimuli\White20.jpg"	"love"	"White"	"nose"	"Pos"	232	523	5	"0"	101	"W"	"M"	"Con"
2	182	"C:\Experiments\Bartholow Lab\Hannah Volpert\stimuli\Black7.jpg"	"joy"	"Black"	"forehead"	"Pos"	112	551	5	"0"	101	"W"	"M"	"Incon"
2	183	"C:\Experiments\Bartholow Lab\Hannah Volpert\stimuli\White22.jpg"	"beauty"	"White"	"eyes"	"Pos"	222	616	5	"0"	101	"W"	"M"	"Con"
2	184	"C:\Experiments\Bartholow Lab\Hannah Volpert\stimuli\Black14.jpg"	"poison"	"Black"	"eyes"	"Neg"	121	470	4	"0"	101	"W"	"M"	"Con"
2	185	"C:\Experiments\Bartholow Lab\Hannah Volpert\stimuli\White24.jpg"	"disgust"	"White"	"eyes"	"Neg"	221	487	4	"0"	101	"W"	"M"	"Incon"
2	186	"C:\Experiments\Bartholow Lab\Hannah Volpert\stimuli\White7.jpg"	"romance"	"White"	"eyes"	"Pos"	222	730	5	"0"	101	"W"	"M"	"Con"
2	187	"C:\Experiments\Bartholow Lab\Hannah Volpert\stimuli\White1.jpg"	"success"	"White"	"eyes"	"Pos"	222	782	5	"0"	101	"W"	"M"	"Con"
2	188	"C:\Experiments\Bartholow Lab\Hannah Volpert\stimuli\Black5.jpg"	"paradise"	"Black"	"forehead"	"Pos"	112	668	5	"0"	101	"W"	"M"	"Incon"
2	189	"C:\Experiments\Bartholow Lab\Hannah Volpert\stimuli\White4.jpg"	"disgust"	"White"	"eyes"	"Neg"	221	517	4	"0"	101	"W"	"M"	"Incon"
2	190	"C:\Experiments\Bartholow Lab\Hannah Volpert\stimuli\White16.jpg"	"sewage"	"White"	"nose"	"Neg"	231	510	4	"0"	101	"W"	"M"	"Incon"
2	191	"C:\Experiments\Bartholow Lab\Hannah Volpert\stimuli\Black20.jpg"	"romance"	"Black"	"forehead"	"Pos"	112	521	5	"0"	101	"W"	"M"	"Incon"
2	192	"C:\Experiments\Bartholow Lab\Hannah Volpert\stimuli\Black19.jpg"	"despair"	"Black"	"forehead"	"Neg"	111	597	4	"0"	101	"W"	"M"	"Con"
2	193	"C:\Experiments\Bartholow Lab\Hannah Volpert\stimuli\Black17.jpg"	"smile"	"Black"	"forehead"	"Pos"	112	475	5	"0"	101	"W"	"M"	"Incon"
2	194	"C:\Experiments\Bartholow Lab\Hannah Volpert\stimuli\White18.jpg"	"pest"	"White"	"forehead"	"Neg"	211	513	4	"0"	101	"W"	"M"	"Incon"
2	195	"C:\Experiments\Bartholow Lab\Hannah Volpert\stimuli\White20.jpg"	"despair"	"White"	"nose"	"Neg"	231	543	4	"0"	101	"W"	"M"	"Incon"
2	196	"C:\Experiments\Bartholow Lab\Hannah Volpert\stimuli\White10.jpg"	"poison"	"White"	"eyes"	"Neg"	221	654	4	"0"	101	"W"	"M"	"Incon"
2	197	"C:\Experiments\Bartholow Lab\Hannah Volpert\stimuli\Black7.jpg"	"cockroach"	"Black"	"nose"	"Neg"	131	500	4	"0"	101	"W"	"M"	"Con"
2	198	"C:\Experiments\Bartholow Lab\Hannah Volpert\stimuli\White22.jpg"	"garbage"	"White"	"forehead"	"Neg"	211	490	4	"0"	101	"W"	"M"	"Incon"
2	199	"C:\Experiments\Bartholow Lab\Hannah Volpert\stimuli\Black12.jpg"	"smile"	"Black"	"forehead"	"Pos"	112	622	5	"0"	101	"W"	"M"	"Incon"
2	200	"C:\Experiments\Bartholow Lab\Hannah Volpert\stimuli\Black20.jpg"	"love"	"Black"	"eyes"	"Pos"	122	593	5	"0"	101	"W"	"M"	"Incon"
2	201	"C:\Experiments\Bartholow Lab\Hannah Volpert\stimuli\Black15.jpg"	"pest"	"Black"	"nose"	"Neg"	131	586	4	"0"	101	"W"	"M"	"Con"
2	202	"C:\Experiments\Bartholow Lab\Hannah Volpert\stimuli\Black21.jpg"	"beauty"	"Black"	"forehead"	"Pos"	112	635	5	"0"	101	"W"	"M"	"Incon"
2	203	"C:\Experiments\Bartholow Lab\Hannah Volpert\stimuli\White13.jpg"	"vacation"	"White"	"nose"	"Pos"	232	492	5	"0"	101	"W"	"M"	"Con"
2	204	"C:\Experiments\Bartholow Lab\Hannah Volpert\stimuli\White14.jpg"	"paradise"	"White"	"nose"	"Pos"	232	519	4	"1"	101	"W"	"M"	"Con"
2	205	"C:\Experiments\Bartholow Lab\Hannah Volpert\stimuli\Black3.jpg"	"garbage"	"Black"	"forehead"	"Neg"	111	654	4	"0"	101	"W"	"M"	"Con"
2	206	"C:\Experiments\Bartholow Lab\Hannah Volpert\stimuli\White3.jpg"	"success"	"White"	"nose"	"Pos"	232	625	5	"0"	101	"W"	"M"	"Con"
2	207	"C:\Experiments\Bartholow Lab\Hannah Volpert\stimuli\Black4.jpg"	"beauty"	"Black"	"forehead"	"Pos"	112	613	5	"0"	101	"W"	"M"	"Incon"
2	208	"C:\Experiments\Bartholow Lab\Hannah Volpert\stimuli\Black10.jpg"	"cockroach"	"Black"	"forehead"	"Neg"	111	1363	4	"0"	101	"W"	"M"	"Con"
2	209	"C:\Experiments\Bartholow Lab\Hannah Volpert\stimuli\Black23.jpg"	"vomit"	"Black"	"eyes"	"Neg"	121	823	4	"0"	101	"W"	"M"	"Con"
2	210	"C:\Experiments\Bartholow Lab\Hannah Volpert\stimuli\White16.jpg"	"cockroach"	"White"	"eyes"	"Neg"	221	877	4	"0"	101	"W"	"M"	"Incon"
2	211	"C:\Experiments\Bartholow Lab\Hannah Volpert\stimuli\Black8.jpg"	"disgust"	"Black"	"eyes"	"Neg"	121	782	4	"0"	101	"W"	"M"	"Con"
2	212	"C:\Experiments\Bartholow Lab\Hannah Volpert\stimuli\Black22.jpg"	"disgust"	"Black"	"eyes"	"Neg"	121	828	4	"0"	101	"W"	"M"	"Con"
2	213	"C:\Experiments\Bartholow Lab\Hannah Volpert\stimuli\Black9.jpg"	"smile"	"Black"	"eyes"	"Pos"	122	581	5	"0"	101	"W"	"M"	"Incon"
2	214	"C:\Experiments\Bartholow Lab\Hannah Volpert\stimuli\White4.jpg"	"cockroach"	"White"	"nose"	"Neg"	231	617	4	"0"	101	"W"	"M"	"Incon"
2	215	"C:\Experiments\Bartholow Lab\Hannah Volpert\stimuli\White6.jpg"	"paradise"	"White"	"nose"	"Pos"	232	631	5	"0"	101	"W"	"M"	"Con"
2	216	"C:\Experiments\Bartholow Lab\Hannah Volpert\stimuli\Black9.jpg"	"pest"	"Black"	"nose"	"Neg"	131	629	4	"0"	101	"W"	"M"	"Con"
2	217	"C:\Experiments\Bartholow Lab\Hannah Volpert\stimuli\Black14.jpg"	"poison"	"Black"	"forehead"	"Neg"	111	605	4	"0"	101	"W"	"M"	"Con"
2	218	"C:\Experiments\Bartholow Lab\Hannah Volpert\stimuli\White21.jpg"	"joy"	"White"	"nose"	"Pos"	232	462	5	"0"	101	"W"	"M"	"Con"
2	219	"C:\Experiments\Bartholow Lab\Hannah Volpert\stimuli\White1.jpg"	"vacation"	"White"	"forehead"	"Pos"	212	524	5	"0"	101	"W"	"M"	"Con"
2	220	"C:\Experiments\Bartholow Lab\Hannah Volpert\stimuli\Black6.jpg"	"love"	"Black"	"nose"	"Pos"	132	520	5	"0"	101	"W"	"M"	"Incon"
2	221	"C:\Experiments\Bartholow Lab\Hannah Volpert\stimuli\White5.jpg"	"joy"	"White"	"eyes"	"Pos"	222	595	5	"0"	101	"W"	"M"	"Con"
2	222	"C:\Experiments\Bartholow Lab\Hannah Volpert\stimuli\White21.jpg"	"vacation"	"White"	"forehead"	"Pos"	212	610	5	"0"	101	"W"	"M"	"Con"
2	223	"C:\Experiments\Bartholow Lab\Hannah Volpert\stimuli\Black24.jpg"	"smile"	"Black"	"eyes"	"Pos"	122	464	5	"0"	101	"W"	"M"	"Incon"
2	224	"C:\Experiments\Bartholow Lab\Hannah Volpert\stimuli\Black17.jpg"	"cockroach"	"Black"	"forehead"	"Neg"	111	635	4	"0"	101	"W"	"M"	"Con"
2	225	"C:\Experiments\Bartholow Lab\Hannah Volpert\stimuli\Black19.jpg"	"success"	"Black"	"forehead"	"Pos"	112	604	5	"0"	101	"W"	"M"	"Incon"
2	226	"C:\Experiments\Bartholow Lab\Hannah Volpert\stimuli\Black22.jpg"	"garbage"	"Black"	"nose"	"Neg"	131	568	4	"0"	101	"W"	"M"	"Con"
2	227	"C:\Experiments\Bartholow Lab\Hannah Volpert\stimuli\White21.jpg"	"beauty"	"White"	"eyes"	"Pos"	222	513	5	"0"	101	"W"	"M"	"Con"
2	228	"C:\Experiments\Bartholow Lab\Hannah Volpert\stimuli\Black4.jpg"	"joy"	"Black"	"eyes"	"Pos"	122	476	5	"0"	101	"W"	"M"	"Incon"
2	229	"C:\Experiments\Bartholow Lab\Hannah Volpert\stimuli\Black11.jpg"	"paradise"	"Black"	"forehead"	"Pos"	112	602	5	"0"	101	"W"	"M"	"Incon"
2	230	"C:\Experiments\Bartholow Lab\Hannah Volpert\stimuli\Black23.jpg"	"success"	"Black"	"nose"	"Pos"	132	963	5	"0"	101	"W"	"M"	"Incon"
2	231	"C:\Experiments\Bartholow Lab\Hannah Volpert\stimuli\Black18.jpg"	"beauty"	"Black"	"eyes"	"Pos"	122	532	5	"0"	101	"W"	"M"	"Incon"
2	232	"C:\Experiments\Bartholow Lab\Hannah Volpert\stimuli\White19.jpg"	"sewage"	"White"	"nose"	"Neg"	231	611	4	"0"	101	"W"	"M"	"Incon"
2	233	"C:\Experiments\Bartholow Lab\Hannah Volpert\stimuli\White14.jpg"	"vomit"	"White"	"forehead"	"Neg"	211	771	4	"0"	101	"W"	"M"	"Incon"
2	234	"C:\Experiments\Bartholow Lab\Hannah Volpert\stimuli\Black13.jpg"	"beauty"	"Black"	"nose"	"Pos"	132	639	5	"0"	101	"W"	"M"	"Incon"
2	235	"C:\Experiments\Bartholow Lab\Hannah Volpert\stimuli\Black5.jpg"	"love"	"Black"	"nose"	"Pos"	132	517	5	"0"	101	"W"	"M"	"Incon"
2	236	"C:\Experiments\Bartholow Lab\Hannah Volpert\stimuli\White9.jpg"	"cockroach"	"White"	"nose"	"Neg"	231	606	4	"0"	101	"W"	"M"	"Incon"
2	237	"C:\Experiments\Bartholow Lab\Hannah Volpert\stimuli\Black23.jpg"	"sewage"	"Black"	"nose"	"Neg"	131	602	4	"0"	101	"W"	"M"	"Con"
2	238	"C:\Experiments\Bartholow Lab\Hannah Volpert\stimuli\White19.jpg"	"sewage"	"White"	"eyes"	"Neg"	221	536	4	"0"	101	"W"	"M"	"Incon"
2	239	"C:\Experiments\Bartholow Lab\Hannah Volpert\stimuli\Black14.jpg"	"joy"	"Black"	"eyes"	"Pos"	122	502	5	"0"	101	"W"	"M"	"Incon"
2	240	"C:\Experiments\Bartholow Lab\Hannah Volpert\stimuli\Black10.jpg"	"vomit"	"Black"	"eyes"	"Neg"	121	572	4	"0"	101	"W"	"M"	"Con"
2	241	"C:\Experiments\Bartholow Lab\Hannah Volpert\stimuli\White9.jpg"	"sewage"	"White"	"forehead"	"Neg"	211	624	4	"0"	101	"W"	"M"	"Incon"
2	242	"C:\Experiments\Bartholow Lab\Hannah Volpert\stimuli\Black13.jpg"	"cockroach"	"Black"	"forehead"	"Neg"	111	622	4	"0"	101	"W"	"M"	"Con"
2	243	"C:\Experiments\Bartholow Lab\Hannah Volpert\stimuli\Black6.jpg"	"vomit"	"Black"	"nose"	"Neg"	131	527	4	"0"	101	"W"	"M"	"Con"
2	244	"C:\Experiments\Bartholow Lab\Hannah Volpert\stimuli\Black24.jpg"	"pest"	"Black"	"nose"	"Neg"	131	557	4	"0"	101	"W"	"M"	"Con"
2	245	"C:\Experiments\Bartholow Lab\Hannah Volpert\stimuli\Black13.jpg"	"romance"	"Black"	"forehead"	"Pos"	112	542	5	"0"	101	"W"	"M"	"Incon"
2	246	"C:\Experiments\Bartholow Lab\Hannah Volpert\stimuli\Black9.jpg"	"disgust"	"Black"	"eyes"	"Neg"	121	623	4	"0"	101	"W"	"M"	"Con"
2	247	"C:\Experiments\Bartholow Lab\Hannah Volpert\stimuli\White2.jpg"	"beauty"	"White"	"nose"	"Pos"	232	621	5	"0"	101	"W"	"M"	"Con"
2	248	"C:\Experiments\Bartholow Lab\Hannah Volpert\stimuli\Black20.jpg"	"cockroach"	"Black"	"eyes"	"Neg"	121	622	4	"0"	101	"W"	"M"	"Con"
2	249	"C:\Experiments\Bartholow Lab\Hannah Volpert\stimuli\Black21.jpg"	"garbage"	"Black"	"nose"	"Neg"	131	543	4	"0"	101	"W"	"M"	"Con"
2	250	"C:\Experiments\Bartholow Lab\Hannah Volpert\stimuli\White11.jpg"	"despair"	"White"	"nose"	"Neg"	231	509	4	"0"	101	"W"	"M"	"Incon"
2	251	"C:\Experiments\Bartholow Lab\Hannah Volpert\stimuli\White18.jpg"	"joy"	"White"	"nose"	"Pos"	232	491	5	"0"	101	"W"	"M"	"Con"
2	252	"C:\Experiments\Bartholow Lab\Hannah Volpert\stimuli\White16.jpg"	"smile"	"White"	"nose"	"Pos"	232	543	5	"0"	101	"W"	"M"	"Con"
2	253	"C:\Experiments\Bartholow Lab\Hannah Volpert\stimuli\White17.jpg"	"poison"	"White"	"forehead"	"Neg"	211	717	4	"0"	101	"W"	"M"	"Incon"
2	254	"C:\Experiments\Bartholow Lab\Hannah Volpert\stimuli\White3.jpg"	"joy"	"White"	"forehead"	"Pos"	212	593	5	"0"	101	"W"	"M"	"Con"
2	255	"C:\Experiments\Bartholow Lab\Hannah Volpert\stimuli\Black18.jpg"	"garbage"	"Black"	"eyes"	"Neg"	121	569	4	"0"	101	"W"	"M"	"Con"
2	256	"C:\Experiments\Bartholow Lab\Hannah Volpert\stimuli\Black8.jpg"	"pest"	"Black"	"nose"	"Neg"	131	576	4	"0"	101	"W"	"M"	"Con"
2	257	"C:\Experiments\Bartholow Lab\Hannah Volpert\stimuli\White2.jpg"	"cockroach"	"White"	"forehead"	"Neg"	211	614	4	"0"	101	"W"	"M"	"Incon"
2	258	"C:\Experiments\Bartholow Lab\Hannah Volpert\stimuli\Black1.jpg"	"sewage"	"Black"	"nose"	"Neg"	131	535	4	"0"	101	"W"	"M"	"Con"
2	259	"C:\Experiments\Bartholow Lab\Hannah Volpert\stimuli\Black20.jpg"	"disgust"	"Black"	"forehead"	"Neg"	111	648	4	"0"	101	"W"	"M"	"Con"
2	260	"C:\Experiments\Bartholow Lab\Hannah Volpert\stimuli\Black11.jpg"	"sewage"	"Black"	"eyes"	"Neg"	121	550	4	"0"	101	"W"	"M"	"Con"
2	261	"C:\Experiments\Bartholow Lab\Hannah Volpert\stimuli\White3.jpg"	"despair"	"White"	"nose"	"Neg"	231	519	4	"0"	101	"W"	"M"	"Incon"
2	262	"C:\Experiments\Bartholow Lab\Hannah Volpert\stimuli\Black19.jpg"	"despair"	"Black"	"nose"	"Neg"	131	563	4	"0"	101	"W"	"M"	"Con"
2	263	"C:\Experiments\Bartholow Lab\Hannah Volpert\stimuli\Black10.jpg"	"joy"	"Black"	"forehead"	"Pos"	112	614	5	"0"	101	"W"	"M"	"Incon"
2	264	"C:\Experiments\Bartholow Lab\Hannah Volpert\stimuli\White8.jpg"	"despair"	"White"	"forehead"	"Neg"	211	612	4	"0"	101	"W"	"M"	"Incon"
2	265	"C:\Experiments\Bartholow Lab\Hannah Volpert\stimuli\Black5.jpg"	"despair"	"Black"	"eyes"	"Neg"	121	595	4	"0"	101	"W"	"M"	"Con"
2	266	"C:\Experiments\Bartholow Lab\Hannah Volpert\stimuli\Black18.jpg"	"romance"	"Black"	"nose"	"Pos"	132	683	5	"0"	101	"W"	"M"	"Incon"
2	267	"C:\Experiments\Bartholow Lab\Hannah Volpert\stimuli\Black17.jpg"	"love"	"Black"	"eyes"	"Pos"	122	596	5	"0"	101	"W"	"M"	"Incon"
2	268	"C:\Experiments\Bartholow Lab\Hannah Volpert\stimuli\White12.jpg"	"success"	"White"	"nose"	"Pos"	232	704	5	"0"	101	"W"	"M"	"Con"
2	269	"C:\Experiments\Bartholow Lab\Hannah Volpert\stimuli\Black14.jpg"	"garbage"	"Black"	"nose"	"Neg"	131	734	4	"0"	101	"W"	"M"	"Con"
2	270	"C:\Experiments\Bartholow Lab\Hannah Volpert\stimuli\Black21.jpg"	"success"	"Black"	"nose"	"Pos"	132	682	5	"0"	101	"W"	"M"	"Incon"
2	271	"C:\Experiments\Bartholow Lab\Hannah Volpert\stimuli\White24.jpg"	"smile"	"White"	"nose"	"Pos"	232	693	5	"0"	101	"W"	"M"	"Con"
2	272	"C:\Experiments\Bartholow Lab\Hannah Volpert\stimuli\White13.jpg"	"poison"	"White"	"eyes"	"Neg"	221	753	4	"0"	101	"W"	"M"	"Incon"
2	273	"C:\Experiments\Bartholow Lab\Hannah Volpert\stimuli\Black12.jpg"	"love"	"Black"	"nose"	"Pos"	132	714	5	"0"	101	"W"	"M"	"Incon"
2	274	"C:\Experiments\Bartholow Lab\Hannah Volpert\stimuli\White11.jpg"	"love"	"White"	"forehead"	"Pos"	212	651	5	"0"	101	"W"	"M"	"Con"
2	275	"C:\Experiments\Bartholow Lab\Hannah Volpert\stimuli\White1.jpg"	"poison"	"White"	"eyes"	"Neg"	221	590	4	"0"	101	"W"	"M"	"Incon"
2	276	"C:\Experiments\Bartholow Lab\Hannah Volpert\stimuli\White8.jpg"	"pest"	"White"	"eyes"	"Neg"	221	679	4	"0"	101	"W"	"M"	"Incon"
2	277	"C:\Experiments\Bartholow Lab\Hannah Volpert\stimuli\White10.jpg"	"smile"	"White"	"eyes"	"Pos"	222	627	5	"0"	101	"W"	"M"	"Con"
2	278	"C:\Experiments\Bartholow Lab\Hannah Volpert\stimuli\White8.jpg"	"garbage"	"White"	"nose"	"Neg"	231	564	4	"0"	101	"W"	"M"	"Incon"
2	279	"C:\Experiments\Bartholow Lab\Hannah Volpert\stimuli\White12.jpg"	"pest"	"White"	"eyes"	"Neg"	221	551	4	"0"	101	"W"	"M"	"Incon"
2	280	"C:\Experiments\Bartholow Lab\Hannah Volpert\stimuli\White13.jpg"	"garbage"	"White"	"nose"	"Neg"	231	632	4	"0"	101	"W"	"M"	"Incon"
2	281	"C:\Experiments\Bartholow Lab\Hannah Volpert\stimuli\White9.jpg"	"vacation"	"White"	"nose"	"Pos"	232	566	5	"0"	101	"W"	"M"	"Con"
2	282	"C:\Experiments\Bartholow Lab\Hannah Volpert\stimuli\White22.jpg"	"smile"	"White"	"forehead"	"Pos"	212	583	5	"0"	101	"W"	"M"	"Con"
2	283	"C:\Experiments\Bartholow Lab\Hannah Volpert\stimuli\Black18.jpg"	"joy"	"Black"	"forehead"	"Pos"	112	621	5	"0"	101	"W"	"M"	"Incon"
2	284	"C:\Experiments\Bartholow Lab\Hannah Volpert\stimuli\Black11.jpg"	"despair"	"Black"	"forehead"	"Neg"	111	598	4	"0"	101	"W"	"M"	"Con"
2	285	"C:\Experiments\Bartholow Lab\Hannah Volpert\stimuli\Black22.jpg"	"love"	"Black"	"nose"	"Pos"	132	786	5	"0"	101	"W"	"M"	"Incon"
2	286	"C:\Experiments\Bartholow Lab\Hannah Volpert\stimuli\Black3.jpg"	"cockroach"	"Black"	"eyes"	"Neg"	121	621	4	"0"	101	"W"	"M"	"Con"
2	287	"C:\Experiments\Bartholow Lab\Hannah Volpert\stimuli\Black22.jpg"	"joy"	"Black"	"forehead"	"Pos"	112	732	5	"0"	101	"W"	"M"	"Incon"
2	288	"C:\Experiments\Bartholow Lab\Hannah Volpert\stimuli\White9.jpg"	"despair"	"White"	"eyes"	"Neg"	221	978	4	"0"	101	"W"	"M"	"Incon"
2	1	"C:\Experiments\Bartholow Lab\Hannah Volpert\stimuli\White9.jpg"	"romance"	"White"	"forehead"	"Pos"	212	952	5	"0"	102	"W"	"M"	"Con"
2	2	"C:\Experiments\Bartholow Lab\Hannah Volpert\stimuli\White18.jpg"	"success"	"White"	"nose"	"Pos"	232	559	5	"0"	102	"W"	"M"	"Con"
2	3	"C:\Experiments\Bartholow Lab\Hannah Volpert\stimuli\White19.jpg"	"romance"	"White"	"nose"	"Pos"	232	576	5	"0"	102	"W"	"M"	"Con"
2	4	"C:\Experiments\Bartholow Lab\Hannah Volpert\stimuli\Black10.jpg"	"cockroach"	"Black"	"eyes"	"Neg"	121	582	4	"0"	102	"W"	"M"	"Con"
2	5	"C:\Experiments\Bartholow Lab\Hannah Volpert\stimuli\Black24.jpg"	"success"	"Black"	"eyes"	"Pos"	122	511	5	"0"	102	"W"	"M"	"Incon"
2	6	"C:\Experiments\Bartholow Lab\Hannah Volpert\stimuli\White5.jpg"	"beauty"	"White"	"eyes"	"Pos"	222	552	5	"0"	102	"W"	"M"	"Con"
2	7	"C:\Experiments\Bartholow Lab\Hannah Volpert\stimuli\White23.jpg"	"romance"	"White"	"forehead"	"Pos"	212	500	5	"0"	102	"W"	"M"	"Con"
2	8	"C:\Experiments\Bartholow Lab\Hannah Volpert\stimuli\Black22.jpg"	"romance"	"Black"	"nose"	"Pos"	132	507	5	"0"	102	"W"	"M"	"Incon"
2	9	"C:\Experiments\Bartholow Lab\Hannah Volpert\stimuli\White22.jpg"	"garbage"	"White"	"eyes"	"Neg"	221	499	4	"0"	102	"W"	"M"	"Incon"
2	10	"C:\Experiments\Bartholow Lab\Hannah Volpert\stimuli\Black8.jpg"	"disgust"	"Black"	"eyes"	"Neg"	121	602	4	"0"	102	"W"	"M"	"Con"
2	11	"C:\Experiments\Bartholow Lab\Hannah Volpert\stimuli\White1.jpg"	"cockroach"	"White"	"forehead"	"Neg"	211	533	4	"0"	102	"W"	"M"	"Incon"
2	12	"C:\Experiments\Bartholow Lab\Hannah Volpert\stimuli\White2.jpg"	"despair"	"White"	"nose"	"Neg"	231	622	4	"0"	102	"W"	"M"	"Incon"
2	13	"C:\Experiments\Bartholow Lab\Hannah Volpert\stimuli\White20.jpg"	"beauty"	"White"	"nose"	"Pos"	232	501	5	"0"	102	"W"	"M"	"Con"
2	14	"C:\Experiments\Bartholow Lab\Hannah Volpert\stimuli\White11.jpg"	"vomit"	"White"	"forehead"	"Neg"	211	588	4	"0"	102	"W"	"M"	"Incon"
2	15	"C:\Experiments\Bartholow Lab\Hannah Volpert\stimuli\Black20.jpg"	"smile"	"Black"	"forehead"	"Pos"	112	1708	5	"0"	102	"W"	"M"	"Incon"
2	16	"C:\Experiments\Bartholow Lab\Hannah Volpert\stimuli\Black5.jpg"	"disgust"	"Black"	"nose"	"Neg"	131	614	4	"0"	102	"W"	"M"	"Con"
2	17	"C:\Experiments\Bartholow Lab\Hannah Volpert\stimuli\White13.jpg"	"vomit"	"White"	"eyes"	"Neg"	221	532	4	"0"	102	"W"	"M"	"Incon"
2	18	"C:\Experiments\Bartholow Lab\Hannah Volpert\stimuli\White3.jpg"	"vomit"	"White"	"forehead"	"Neg"	211	527	4	"0"	102	"W"	"M"	"Incon"
2	19	"C:\Experiments\Bartholow Lab\Hannah Volpert\stimuli\White1.jpg"	"success"	"White"	"nose"	"Pos"	232	507	5	"0"	102	"W"	"M"	"Con"
2	20	"C:\Experiments\Bartholow Lab\Hannah Volpert\stimuli\Black8.jpg"	"garbage"	"Black"	"nose"	"Neg"	131	598	4	"0"	102	"W"	"M"	"Con"
2	21	"C:\Experiments\Bartholow Lab\Hannah Volpert\stimuli\Black8.jpg"	"paradise"	"Black"	"eyes"	"Pos"	122	565	4	"1"	102	"W"	"M"	"Incon"
2	22	"C:\Experiments\Bartholow Lab\Hannah Volpert\stimuli\Black9.jpg"	"despair"	"Black"	"nose"	"Neg"	131	552	4	"0"	102	"W"	"M"	"Con"
2	23	"C:\Experiments\Bartholow Lab\Hannah Volpert\stimuli\Black3.jpg"	"romance"	"Black"	"eyes"	"Pos"	122	500	5	"0"	102	"W"	"M"	"Incon"
2	24	"C:\Experiments\Bartholow Lab\Hannah Volpert\stimuli\Black1.jpg"	"love"	"Black"	"eyes"	"Pos"	122	517	5	"0"	102	"W"	"M"	"Incon"
2	25	"C:\Experiments\Bartholow Lab\Hannah Volpert\stimuli\Black18.jpg"	"smile"	"Black"	"forehead"	"Pos"	112	638	5	"0"	102	"W"	"M"	"Incon"
2	26	"C:\Experiments\Bartholow Lab\Hannah Volpert\stimuli\White16.jpg"	"garbage"	"White"	"nose"	"Neg"	231	526	4	"0"	102	"W"	"M"	"Incon"
2	27	"C:\Experiments\Bartholow Lab\Hannah Volpert\stimuli\White21.jpg"	"poison"	"White"	"eyes"	"Neg"	221	621	4	"0"	102	"W"	"M"	"Incon"
2	28	"C:\Experiments\Bartholow Lab\Hannah Volpert\stimuli\White16.jpg"	"paradise"	"White"	"nose"	"Pos"	232	699	5	"0"	102	"W"	"M"	"Con"
2	29	"C:\Experiments\Bartholow Lab\Hannah Volpert\stimuli\White17.jpg"	"pest"	"White"	"forehead"	"Neg"	211	665	4	"0"	102	"W"	"M"	"Incon"
2	30	"C:\Experiments\Bartholow Lab\Hannah Volpert\stimuli\Black2.jpg"	"poison"	"Black"	"nose"	"Neg"	131	661	4	"0"	102	"W"	"M"	"Con"
2	31	"C:\Experiments\Bartholow Lab\Hannah Volpert\stimuli\Black4.jpg"	"pest"	"Black"	"forehead"	"Neg"	111	622	4	"0"	102	"W"	"M"	"Con"
2	32	"C:\Experiments\Bartholow Lab\Hannah Volpert\stimuli\Black4.jpg"	"joy"	"Black"	"nose"	"Pos"	132	526	5	"0"	102	"W"	"M"	"Incon"
2	33	"C:\Experiments\Bartholow Lab\Hannah Volpert\stimuli\White7.jpg"	"joy"	"White"	"eyes"	"Pos"	222	746	5	"0"	102	"W"	"M"	"Con"
2	34	"C:\Experiments\Bartholow Lab\Hannah Volpert\stimuli\Black15.jpg"	"poison"	"Black"	"forehead"	"Neg"	111	695	4	"0"	102	"W"	"M"	"Con"
2	35	"C:\Experiments\Bartholow Lab\Hannah Volpert\stimuli\Black21.jpg"	"sewage"	"Black"	"forehead"	"Neg"	111	634	4	"0"	102	"W"	"M"	"Con"
2	36	"C:\Experiments\Bartholow Lab\Hannah Volpert\stimuli\White9.jpg"	"joy"	"White"	"eyes"	"Pos"	222	747	5	"0"	102	"W"	"M"	"Con"
2	37	"C:\Experiments\Bartholow Lab\Hannah Volpert\stimuli\White20.jpg"	"success"	"White"	"forehead"	"Pos"	212	460	5	"0"	102	"W"	"M"	"Con"
2	38	"C:\Experiments\Bartholow Lab\Hannah Volpert\stimuli\White3.jpg"	"smile"	"White"	"forehead"	"Pos"	212	536	5	"0"	102	"W"	"M"	"Con"
2	39	"C:\Experiments\Bartholow Lab\Hannah Volpert\stimuli\White13.jpg"	"paradise"	"White"	"eyes"	"Pos"	222	694	5	"0"	102	"W"	"M"	"Con"
2	40	"C:\Experiments\Bartholow Lab\Hannah Volpert\stimuli\White3.jpg"	"vomit"	"White"	"nose"	"Neg"	231	564	4	"0"	102	"W"	"M"	"Incon"
2	41	"C:\Experiments\Bartholow Lab\Hannah Volpert\stimuli\White7.jpg"	"sewage"	"White"	"nose"	"Neg"	231	568	4	"0"	102	"W"	"M"	"Incon"
2	42	"C:\Experiments\Bartholow Lab\Hannah Volpert\stimuli\Black6.jpg"	"vacation"	"Black"	"eyes"	"Pos"	122	763	5	"0"	102	"W"	"M"	"Incon"
2	43	"C:\Experiments\Bartholow Lab\Hannah Volpert\stimuli\White22.jpg"	"beauty"	"White"	"eyes"	"Pos"	222	583	5	"0"	102	"W"	"M"	"Con"
2	44	"C:\Experiments\Bartholow Lab\Hannah Volpert\stimuli\White16.jpg"	"sewage"	"White"	"eyes"	"Neg"	221	544	4	"0"	102	"W"	"M"	"Incon"
2	45	"C:\Experiments\Bartholow Lab\Hannah Volpert\stimuli\Black17.jpg"	"love"	"Black"	"nose"	"Pos"	132	494	5	"0"	102	"W"	"M"	"Incon"
2	46	"C:\Experiments\Bartholow Lab\Hannah Volpert\stimuli\Black13.jpg"	"vacation"	"Black"	"eyes"	"Pos"	122	516	5	"0"	102	"W"	"M"	"Incon"
2	47	"C:\Experiments\Bartholow Lab\Hannah Volpert\stimuli\White20.jpg"	"despair"	"White"	"forehead"	"Neg"	211	533	4	"0"	102	"W"	"M"	"Incon"
2	48	"C:\Experiments\Bartholow Lab\Hannah Volpert\stimuli\Black23.jpg"	"smile"	"Black"	"eyes"	"Pos"	122	467	5	"0"	102	"W"	"M"	"Incon"
2	49	"C:\Experiments\Bartholow Lab\Hannah Volpert\stimuli\White17.jpg"	"love"	"White"	"forehead"	"Pos"	212	436	5	"0"	102	"W"	"M"	"Con"
2	50	"C:\Experiments\Bartholow Lab\Hannah Volpert\stimuli\White22.jpg"	"joy"	"White"	"forehead"	"Pos"	212	461	5	"0"	102	"W"	"M"	"Con"
2	51	"C:\Experiments\Bartholow Lab\Hannah Volpert\stimuli\Black1.jpg"	"garbage"	"Black"	"forehead"	"Neg"	111	486	4	"0"	102	"W"	"M"	"Con"
2	52	"C:\Experiments\Bartholow Lab\Hannah Volpert\stimuli\White1.jpg"	"love"	"White"	"forehead"	"Pos"	212	521	5	"0"	102	"W"	"M"	"Con"
2	53	"C:\Experiments\Bartholow Lab\Hannah Volpert\stimuli\White12.jpg"	"garbage"	"White"	"nose"	"Neg"	231	485	4	"0"	102	"W"	"M"	"Incon"
2	54	"C:\Experiments\Bartholow Lab\Hannah Volpert\stimuli\Black7.jpg"	"romance"	"Black"	"forehead"	"Pos"	112	557	5	"0"	102	"W"	"M"	"Incon"
2	55	"C:\Experiments\Bartholow Lab\Hannah Volpert\stimuli\Black21.jpg"	"vacation"	"Black"	"eyes"	"Pos"	122	546	5	"0"	102	"W"	"M"	"Incon"
2	56	"C:\Experiments\Bartholow Lab\Hannah Volpert\stimuli\Black8.jpg"	"despair"	"Black"	"forehead"	"Neg"	111	499	4	"0"	102	"W"	"M"	"Con"
2	57	"C:\Experiments\Bartholow Lab\Hannah Volpert\stimuli\White15.jpg"	"pest"	"White"	"nose"	"Neg"	231	562	4	"0"	102	"W"	"M"	"Incon"
2	58	"C:\Experiments\Bartholow Lab\Hannah Volpert\stimuli\Black4.jpg"	"sewage"	"Black"	"eyes"	"Neg"	121	547	4	"0"	102	"W"	"M"	"Con"
2	59	"C:\Experiments\Bartholow Lab\Hannah Volpert\stimuli\White4.jpg"	"success"	"White"	"forehead"	"Pos"	212	564	5	"0"	102	"W"	"M"	"Con"
2	60	"C:\Experiments\Bartholow Lab\Hannah Volpert\stimuli\White5.jpg"	"paradise"	"White"	"forehead"	"Pos"	212	613	5	"0"	102	"W"	"M"	"Con"
2	61	"C:\Experiments\Bartholow Lab\Hannah Volpert\stimuli\Black13.jpg"	"joy"	"Black"	"forehead"	"Pos"	112	420	5	"0"	102	"W"	"M"	"Incon"
2	62	"C:\Experiments\Bartholow Lab\Hannah Volpert\stimuli\Black17.jpg"	"pest"	"Black"	"nose"	"Neg"	131	600	4	"0"	102	"W"	"M"	"Con"
2	63	"C:\Experiments\Bartholow Lab\Hannah Volpert\stimuli\White5.jpg"	"poison"	"White"	"forehead"	"Neg"	211	563	4	"0"	102	"W"	"M"	"Incon"
2	64	"C:\Experiments\Bartholow Lab\Hannah Volpert\stimuli\White23.jpg"	"joy"	"White"	"nose"	"Pos"	232	698	5	"0"	102	"W"	"M"	"Con"
2	65	"C:\Experiments\Bartholow Lab\Hannah Volpert\stimuli\Black14.jpg"	"disgust"	"Black"	"forehead"	"Neg"	111	505	4	"0"	102	"W"	"M"	"Con"
2	66	"C:\Experiments\Bartholow Lab\Hannah Volpert\stimuli\Black17.jpg"	"despair"	"Black"	"forehead"	"Neg"	111	476	4	"0"	102	"W"	"M"	"Con"
2	67	"C:\Experiments\Bartholow Lab\Hannah Volpert\stimuli\White13.jpg"	"joy"	"White"	"forehead"	"Pos"	212	413	5	"0"	102	"W"	"M"	"Con"
2	68	"C:\Experiments\Bartholow Lab\Hannah Volpert\stimuli\White15.jpg"	"despair"	"White"	"forehead"	"Neg"	211	521	4	"0"	102	"W"	"M"	"Incon"
2	69	"C:\Experiments\Bartholow Lab\Hannah Volpert\stimuli\White14.jpg"	"vomit"	"White"	"nose"	"Neg"	231	650	4	"0"	102	"W"	"M"	"Incon"
2	70	"C:\Experiments\Bartholow Lab\Hannah Volpert\stimuli\Black7.jpg"	"cockroach"	"Black"	"eyes"	"Neg"	121	635	4	"0"	102	"W"	"M"	"Con"
2	71	"C:\Experiments\Bartholow Lab\Hannah Volpert\stimuli\Black2.jpg"	"smile"	"Black"	"eyes"	"Pos"	122	425	5	"0"	102	"W"	"M"	"Incon"
2	72	"C:\Experiments\Bartholow Lab\Hannah Volpert\stimuli\Black6.jpg"	"cockroach"	"Black"	"forehead"	"Neg"	111	608	4	"0"	102	"W"	"M"	"Con"
2	73	"C:\Experiments\Bartholow Lab\Hannah Volpert\stimuli\White4.jpg"	"romance"	"White"	"eyes"	"Pos"	222	536	5	"0"	102	"W"	"M"	"Con"
2	74	"C:\Experiments\Bartholow Lab\Hannah Volpert\stimuli\White8.jpg"	"romance"	"White"	"eyes"	"Pos"	222	406	5	"0"	102	"W"	"M"	"Con"
2	75	"C:\Experiments\Bartholow Lab\Hannah Volpert\stimuli\White22.jpg"	"vacation"	"White"	"nose"	"Pos"	232	713	5	"0"	102	"W"	"M"	"Con"
2	76	"C:\Experiments\Bartholow Lab\Hannah Volpert\stimuli\Black4.jpg"	"success"	"Black"	"forehead"	"Pos"	112	605	5	"0"	102	"W"	"M"	"Incon"
2	77	"C:\Experiments\Bartholow Lab\Hannah Volpert\stimuli\White24.jpg"	"despair"	"White"	"nose"	"Neg"	231	555	4	"0"	102	"W"	"M"	"Incon"
2	78	"C:\Experiments\Bartholow Lab\Hannah Volpert\stimuli\White11.jpg"	"smile"	"White"	"eyes"	"Pos"	222	556	5	"0"	102	"W"	"M"	"Con"
2	79	"C:\Experiments\Bartholow Lab\Hannah Volpert\stimuli\White11.jpg"	"pest"	"White"	"eyes"	"Neg"	221	637	4	"0"	102	"W"	"M"	"Incon"
2	80	"C:\Experiments\Bartholow Lab\Hannah Volpert\stimuli\White6.jpg"	"smile"	"White"	"eyes"	"Pos"	222	526	5	"0"	102	"W"	"M"	"Con"
2	81	"C:\Experiments\Bartholow Lab\Hannah Volpert\stimuli\White24.jpg"	"vomit"	"White"	"eyes"	"Neg"	221	615	4	"0"	102	"W"	"M"	"Incon"
2	82	"C:\Experiments\Bartholow Lab\Hannah Volpert\stimuli\White20.jpg"	"vacation"	"White"	"eyes"	"Pos"	222	477	5	"0"	102	"W"	"M"	"Con"
2	83	"C:\Experiments\Bartholow Lab\Hannah Volpert\stimuli\White24.jpg"	"love"	"White"	"nose"	"Pos"	232	558	5	"0"	102	"W"	"M"	"Con"
2	84	"C:\Experiments\Bartholow Lab\Hannah Volpert\stimuli\Black17.jpg"	"joy"	"Black"	"eyes"	"Pos"	122	556	5	"0"	102	"W"	"M"	"Incon"
2	85	"C:\Experiments\Bartholow Lab\Hannah Volpert\stimuli\White21.jpg"	"vomit"	"White"	"forehead"	"Neg"	211	592	4	"0"	102	"W"	"M"	"Incon"
2	86	"C:\Experiments\Bartholow Lab\Hannah Volpert\stimuli\Black15.jpg"	"sewage"	"Black"	"nose"	"Neg"	131	664	4	"0"	102	"W"	"M"	"Con"
2	87	"C:\Experiments\Bartholow Lab\Hannah Volpert\stimuli\White12.jpg"	"cockroach"	"White"	"eyes"	"Neg"	221	639	4	"0"	102	"W"	"M"	"Incon"
2	88	"C:\Experiments\Bartholow Lab\Hannah Volpert\stimuli\White19.jpg"	"garbage"	"White"	"eyes"	"Neg"	221	536	4	"0"	102	"W"	"M"	"Incon"
2	89	"C:\Experiments\Bartholow Lab\Hannah Volpert\stimuli\Black6.jpg"	"joy"	"Black"	"nose"	"Pos"	132	424	5	"0"	102	"W"	"M"	"Incon"
2	90	"C:\Experiments\Bartholow Lab\Hannah Volpert\stimuli\White10.jpg"	"garbage"	"White"	"eyes"	"Neg"	221	559	4	"0"	102	"W"	"M"	"Incon"
2	91	"C:\Experiments\Bartholow Lab\Hannah Volpert\stimuli\Black4.jpg"	"vacation"	"Black"	"eyes"	"Pos"	122	501	5	"0"	102	"W"	"M"	"Incon"
2	92	"C:\Experiments\Bartholow Lab\Hannah Volpert\stimuli\White21.jpg"	"love"	"White"	"nose"	"Pos"	232	478	5	"0"	102	"W"	"M"	"Con"
2	93	"C:\Experiments\Bartholow Lab\Hannah Volpert\stimuli\White23.jpg"	"sewage"	"White"	"eyes"	"Neg"	221	489	4	"0"	102	"W"	"M"	"Incon"
2	94	"C:\Experiments\Bartholow Lab\Hannah Volpert\stimuli\Black19.jpg"	"vacation"	"Black"	"forehead"	"Pos"	112	685	5	"0"	102	"W"	"M"	"Incon"
2	95	"C:\Experiments\Bartholow Lab\Hannah Volpert\stimuli\White15.jpg"	"beauty"	"White"	"eyes"	"Pos"	222	502	5	"0"	102	"W"	"M"	"Con"
2	96	"C:\Experiments\Bartholow Lab\Hannah Volpert\stimuli\White20.jpg"	"cockroach"	"White"	"nose"	"Neg"	231	596	4	"0"	102	"W"	"M"	"Incon"
2	97	"C:\Experiments\Bartholow Lab\Hannah Volpert\stimuli\White18.jpg"	"cockroach"	"White"	"forehead"	"Neg"	211	544	4	"0"	102	"W"	"M"	"Incon"
2	98	"C:\Experiments\Bartholow Lab\Hannah Volpert\stimuli\Black1.jpg"	"vacation"	"Black"	"forehead"	"Pos"	112	489	5	"0"	102	"W"	"M"	"Incon"
2	99	"C:\Experiments\Bartholow Lab\Hannah Volpert\stimuli\Black15.jpg"	"love"	"Black"	"eyes"	"Pos"	122	476	5	"0"	102	"W"	"M"	"Incon"
2	100	"C:\Experiments\Bartholow Lab\Hannah Volpert\stimuli\Black20.jpg"	"paradise"	"Black"	"eyes"	"Pos"	122	480	5	"0"	102	"W"	"M"	"Incon"
2	101	"C:\Experiments\Bartholow Lab\Hannah Volpert\stimuli\White2.jpg"	"disgust"	"White"	"eyes"	"Neg"	221	499	4	"0"	102	"W"	"M"	"Incon"
2	102	"C:\Experiments\Bartholow Lab\Hannah Volpert\stimuli\White5.jpg"	"pest"	"White"	"nose"	"Neg"	231	504	4	"0"	102	"W"	"M"	"Incon"
2	103	"C:\Experiments\Bartholow Lab\Hannah Volpert\stimuli\White17.jpg"	"smile"	"White"	"nose"	"Pos"	232	462	5	"0"	102	"W"	"M"	"Con"
2	104	"C:\Experiments\Bartholow Lab\Hannah Volpert\stimuli\White1.jpg"	"beauty"	"White"	"eyes"	"Pos"	222	460	5	"0"	102	"W"	"M"	"Con"
2	105	"C:\Experiments\Bartholow Lab\Hannah Volpert\stimuli\Black23.jpg"	"disgust"	"Black"	"nose"	"Neg"	131	459	4	"0"	102	"W"	"M"	"Con"
2	106	"C:\Experiments\Bartholow Lab\Hannah Volpert\stimuli\White9.jpg"	"love"	"White"	"nose"	"Pos"	232	521	5	"0"	102	"W"	"M"	"Con"
2	107	"C:\Experiments\Bartholow Lab\Hannah Volpert\stimuli\Black5.jpg"	"vomit"	"Black"	"eyes"	"Neg"	121	530	4	"0"	102	"W"	"M"	"Con"
2	108	"C:\Experiments\Bartholow Lab\Hannah Volpert\stimuli\Black12.jpg"	"love"	"Black"	"forehead"	"Pos"	112	454	5	"0"	102	"W"	"M"	"Incon"
2	109	"C:\Experiments\Bartholow Lab\Hannah Volpert\stimuli\White15.jpg"	"cockroach"	"White"	"eyes"	"Neg"	221	545	4	"0"	102	"W"	"M"	"Incon"
2	110	"C:\Experiments\Bartholow Lab\Hannah Volpert\stimuli\White10.jpg"	"vacation"	"White"	"eyes"	"Pos"	222	587	5	"0"	102	"W"	"M"	"Con"
2	111	"C:\Experiments\Bartholow Lab\Hannah Volpert\stimuli\Black7.jpg"	"pest"	"Black"	"forehead"	"Neg"	111	501	4	"0"	102	"W"	"M"	"Con"
2	112	"C:\Experiments\Bartholow Lab\Hannah Volpert\stimuli\White10.jpg"	"despair"	"White"	"forehead"	"Neg"	211	584	4	"0"	102	"W"	"M"	"Incon"
2	113	"C:\Experiments\Bartholow Lab\Hannah Volpert\stimuli\White19.jpg"	"garbage"	"White"	"nose"	"Neg"	231	561	4	"0"	102	"W"	"M"	"Incon"
2	114	"C:\Experiments\Bartholow Lab\Hannah Volpert\stimuli\White19.jpg"	"vacation"	"White"	"eyes"	"Pos"	222	567	5	"0"	102	"W"	"M"	"Con"
2	115	"C:\Experiments\Bartholow Lab\Hannah Volpert\stimuli\White20.jpg"	"disgust"	"White"	"eyes"	"Neg"	221	451	4	"0"	102	"W"	"M"	"Incon"
2	116	"C:\Experiments\Bartholow Lab\Hannah Volpert\stimuli\White6.jpg"	"joy"	"White"	"forehead"	"Pos"	212	479	5	"0"	102	"W"	"M"	"Con"
2	117	"C:\Experiments\Bartholow Lab\Hannah Volpert\stimuli\White12.jpg"	"romance"	"White"	"eyes"	"Pos"	222	459	5	"0"	102	"W"	"M"	"Con"
2	118	"C:\Experiments\Bartholow Lab\Hannah Volpert\stimuli\White24.jpg"	"paradise"	"White"	"forehead"	"Pos"	212	695	5	"0"	102	"W"	"M"	"Con"
2	119	"C:\Experiments\Bartholow Lab\Hannah Volpert\stimuli\Black17.jpg"	"garbage"	"Black"	"eyes"	"Neg"	121	593	4	"0"	102	"W"	"M"	"Con"
2	120	"C:\Experiments\Bartholow Lab\Hannah Volpert\stimuli\Black24.jpg"	"joy"	"Black"	"nose"	"Pos"	132	492	5	"0"	102	"W"	"M"	"Incon"
2	121	"C:\Experiments\Bartholow Lab\Hannah Volpert\stimuli\White13.jpg"	"pest"	"White"	"forehead"	"Neg"	211	556	4	"0"	102	"W"	"M"	"Incon"
2	122	"C:\Experiments\Bartholow Lab\Hannah Volpert\stimuli\Black3.jpg"	"success"	"Black"	"forehead"	"Pos"	112	524	5	"0"	102	"W"	"M"	"Incon"
2	123	"C:\Experiments\Bartholow Lab\Hannah Volpert\stimuli\Black2.jpg"	"paradise"	"Black"	"nose"	"Pos"	132	743	5	"0"	102	"W"	"M"	"Incon"
2	124	"C:\Experiments\Bartholow Lab\Hannah Volpert\stimuli\White18.jpg"	"despair"	"White"	"eyes"	"Neg"	221	595	4	"0"	102	"W"	"M"	"Incon"
2	125	"C:\Experiments\Bartholow Lab\Hannah Volpert\stimuli\White4.jpg"	"despair"	"White"	"forehead"	"Neg"	211	516	4	"0"	102	"W"	"M"	"Incon"
2	126	"C:\Experiments\Bartholow Lab\Hannah Volpert\stimuli\White17.jpg"	"paradise"	"White"	"eyes"	"Pos"	222	480	4	"1"	102	"W"	"M"	"Con"
2	127	"C:\Experiments\Bartholow Lab\Hannah Volpert\stimuli\Black14.jpg"	"beauty"	"Black"	"forehead"	"Pos"	112	412	5	"0"	102	"W"	"M"	"Incon"
2	128	"C:\Experiments\Bartholow Lab\Hannah Volpert\stimuli\Black5.jpg"	"romance"	"Black"	"eyes"	"Pos"	122	514	5	"0"	102	"W"	"M"	"Incon"
2	129	"C:\Experiments\Bartholow Lab\Hannah Volpert\stimuli\Black21.jpg"	"despair"	"Black"	"nose"	"Neg"	131	512	4	"0"	102	"W"	"M"	"Con"
2	130	"C:\Experiments\Bartholow Lab\Hannah Volpert\stimuli\Black24.jpg"	"pest"	"Black"	"nose"	"Neg"	131	606	4	"0"	102	"W"	"M"	"Con"
2	131	"C:\Experiments\Bartholow Lab\Hannah Volpert\stimuli\Black7.jpg"	"success"	"Black"	"eyes"	"Pos"	122	474	5	"0"	102	"W"	"M"	"Incon"
2	132	"C:\Experiments\Bartholow Lab\Hannah Volpert\stimuli\White22.jpg"	"pest"	"White"	"nose"	"Neg"	231	568	4	"0"	102	"W"	"M"	"Incon"
2	133	"C:\Experiments\Bartholow Lab\Hannah Volpert\stimuli\Black16.jpg"	"vacation"	"Black"	"eyes"	"Pos"	122	617	5	"0"	102	"W"	"M"	"Incon"
2	134	"C:\Experiments\Bartholow Lab\Hannah Volpert\stimuli\Black21.jpg"	"joy"	"Black"	"nose"	"Pos"	132	573	5	"0"	102	"W"	"M"	"Incon"
2	135	"C:\Experiments\Bartholow Lab\Hannah Volpert\stimuli\White2.jpg"	"joy"	"White"	"eyes"	"Pos"	222	478	5	"0"	102	"W"	"M"	"Con"
2	136	"C:\Experiments\Bartholow Lab\Hannah Volpert\stimuli\White5.jpg"	"vacation"	"White"	"nose"	"Pos"	232	588	5	"0"	102	"W"	"M"	"Con"
2	137	"C:\Experiments\Bartholow Lab\Hannah Volpert\stimuli\White3.jpg"	"garbage"	"White"	"eyes"	"Neg"	221	469	4	"0"	102	"W"	"M"	"Incon"
2	138	"C:\Experiments\Bartholow Lab\Hannah Volpert\stimuli\White7.jpg"	"success"	"White"	"nose"	"Pos"	232	502	5	"0"	102	"W"	"M"	"Con"
2	139	"C:\Experiments\Bartholow Lab\Hannah Volpert\stimuli\Black19.jpg"	"paradise"	"Black"	"eyes"	"Pos"	122	828	5	"0"	102	"W"	"M"	"Incon"
2	140	"C:\Experiments\Bartholow Lab\Hannah Volpert\stimuli\Black2.jpg"	"pest"	"Black"	"eyes"	"Neg"	121	517	4	"0"	102	"W"	"M"	"Con"
2	141	"C:\Experiments\Bartholow Lab\Hannah Volpert\stimuli\White12.jpg"	"vacation"	"White"	"forehead"	"Pos"	212	686	5	"0"	102	"W"	"M"	"Con"
2	142	"C:\Experiments\Bartholow Lab\Hannah Volpert\stimuli\Black22.jpg"	"pest"	"Black"	"forehead"	"Neg"	111	489	4	"0"	102	"W"	"M"	"Con"
2	143	"C:\Experiments\Bartholow Lab\Hannah Volpert\stimuli\White18.jpg"	"joy"	"White"	"eyes"	"Pos"	222	549	5	"0"	102	"W"	"M"	"Con"
2	144	"C:\Experiments\Bartholow Lab\Hannah Volpert\stimuli\White8.jpg"	"pest"	"White"	"eyes"	"Neg"	221	534	4	"0"	102	"W"	"M"	"Incon"
2	145	"C:\Experiments\Bartholow Lab\Hannah Volpert\stimuli\Black22.jpg"	"romance"	"Black"	"forehead"	"Pos"	112	486	5	"0"	102	"W"	"M"	"Incon"
2	146	"C:\Experiments\Bartholow Lab\Hannah Volpert\stimuli\White8.jpg"	"love"	"White"	"forehead"	"Pos"	212	553	5	"0"	102	"W"	"M"	"Con"
2	147	"C:\Experiments\Bartholow Lab\Hannah Volpert\stimuli\White14.jpg"	"joy"	"White"	"nose"	"Pos"	232	544	5	"0"	102	"W"	"M"	"Con"
2	148	"C:\Experiments\Bartholow Lab\Hannah Volpert\stimuli\Black24.jpg"	"love"	"Black"	"forehead"	"Pos"	112	507	5	"0"	102	"W"	"M"	"Incon"
2	149	"C:\Experiments\Bartholow Lab\Hannah Volpert\stimuli\White1.jpg"	"sewage"	"White"	"nose"	"Neg"	231	660	4	"0"	102	"W"	"M"	"Incon"
2	150	"C:\Experiments\Bartholow Lab\Hannah Volpert\stimuli\Black6.jpg"	"vomit"	"Black"	"eyes"	"Neg"	121	635	4	"0"	102	"W"	"M"	"Con"
2	151	"C:\Experiments\Bartholow Lab\Hannah Volpert\stimuli\White7.jpg"	"disgust"	"White"	"forehead"	"Neg"	211	545	4	"0"	102	"W"	"M"	"Incon"
2	152	"C:\Experiments\Bartholow Lab\Hannah Volpert\stimuli\White6.jpg"	"paradise"	"White"	"nose"	"Pos"	232	658	5	"0"	102	"W"	"M"	"Con"
2	153	"C:\Experiments\Bartholow Lab\Hannah Volpert\stimuli\Black11.jpg"	"paradise"	"Black"	"forehead"	"Pos"	112	550	5	"0"	102	"W"	"M"	"Incon"
2	154	"C:\Experiments\Bartholow Lab\Hannah Volpert\stimuli\Black18.jpg"	"cockroach"	"Black"	"forehead"	"Neg"	111	487	4	"0"	102	"W"	"M"	"Con"
2	155	"C:\Experiments\Bartholow Lab\Hannah Volpert\stimuli\White9.jpg"	"cockroach"	"White"	"forehead"	"Neg"	211	538	4	"0"	102	"W"	"M"	"Incon"
2	156	"C:\Experiments\Bartholow Lab\Hannah Volpert\stimuli\Black24.jpg"	"cockroach"	"Black"	"forehead"	"Neg"	111	523	4	"0"	102	"W"	"M"	"Con"
2	157	"C:\Experiments\Bartholow Lab\Hannah Volpert\stimuli\Black3.jpg"	"sewage"	"Black"	"forehead"	"Neg"	111	657	4	"0"	102	"W"	"M"	"Con"
2	158	"C:\Experiments\Bartholow Lab\Hannah Volpert\stimuli\Black20.jpg"	"love"	"Black"	"nose"	"Pos"	132	490	5	"0"	102	"W"	"M"	"Incon"
2	159	"C:\Experiments\Bartholow Lab\Hannah Volpert\stimuli\White11.jpg"	"success"	"White"	"forehead"	"Pos"	212	636	5	"0"	102	"W"	"M"	"Con"
2	160	"C:\Experiments\Bartholow Lab\Hannah Volpert\stimuli\Black20.jpg"	"poison"	"Black"	"nose"	"Neg"	131	559	4	"0"	102	"W"	"M"	"Con"
2	161	"C:\Experiments\Bartholow Lab\Hannah Volpert\stimuli\White7.jpg"	"despair"	"White"	"eyes"	"Neg"	221	515	4	"0"	102	"W"	"M"	"Incon"
2	162	"C:\Experiments\Bartholow Lab\Hannah Volpert\stimuli\Black9.jpg"	"sewage"	"Black"	"forehead"	"Neg"	111	601	4	"0"	102	"W"	"M"	"Con"
2	163	"C:\Experiments\Bartholow Lab\Hannah Volpert\stimuli\Black5.jpg"	"despair"	"Black"	"forehead"	"Neg"	111	549	4	"0"	102	"W"	"M"	"Con"
2	164	"C:\Experiments\Bartholow Lab\Hannah Volpert\stimuli\Black12.jpg"	"vomit"	"Black"	"eyes"	"Neg"	121	533	4	"0"	102	"W"	"M"	"Con"
2	165	"C:\Experiments\Bartholow Lab\Hannah Volpert\stimuli\Black7.jpg"	"poison"	"Black"	"nose"	"Neg"	131	532	4	"0"	102	"W"	"M"	"Con"
2	166	"C:\Experiments\Bartholow Lab\Hannah Volpert\stimuli\Black6.jpg"	"sewage"	"Black"	"nose"	"Neg"	131	594	4	"0"	102	"W"	"M"	"Con"
2	167	"C:\Experiments\Bartholow Lab\Hannah Volpert\stimuli\White11.jpg"	"disgust"	"White"	"nose"	"Neg"	231	571	4	"0"	102	"W"	"M"	"Incon"
2	168	"C:\Experiments\Bartholow Lab\Hannah Volpert\stimuli\White15.jpg"	"love"	"White"	"forehead"	"Pos"	212	562	5	"0"	102	"W"	"M"	"Con"
2	169	"C:\Experiments\Bartholow Lab\Hannah Volpert\stimuli\Black13.jpg"	"sewage"	"Black"	"nose"	"Neg"	131	550	4	"0"	102	"W"	"M"	"Con"
2	170	"C:\Experiments\Bartholow Lab\Hannah Volpert\stimuli\Black11.jpg"	"despair"	"Black"	"nose"	"Neg"	131	513	4	"0"	102	"W"	"M"	"Con"
2	171	"C:\Experiments\Bartholow Lab\Hannah Volpert\stimuli\White14.jpg"	"smile"	"White"	"eyes"	"Pos"	222	511	5	"0"	102	"W"	"M"	"Con"
2	172	"C:\Experiments\Bartholow Lab\Hannah Volpert\stimuli\Black21.jpg"	"success"	"Black"	"forehead"	"Pos"	112	558	5	"0"	102	"W"	"M"	"Incon"
2	173	"C:\Experiments\Bartholow Lab\Hannah Volpert\stimuli\Black10.jpg"	"vacation"	"Black"	"forehead"	"Pos"	112	734	5	"0"	102	"W"	"M"	"Incon"
2	174	"C:\Experiments\Bartholow Lab\Hannah Volpert\stimuli\White10.jpg"	"paradise"	"White"	"nose"	"Pos"	232	706	5	"0"	102	"W"	"M"	"Con"
2	175	"C:\Experiments\Bartholow Lab\Hannah Volpert\stimuli\Black24.jpg"	"sewage"	"Black"	"eyes"	"Neg"	121	557	4	"0"	102	"W"	"M"	"Con"
2	176	"C:\Experiments\Bartholow Lab\Hannah Volpert\stimuli\White21.jpg"	"sewage"	"White"	"nose"	"Neg"	231	675	4	"0"	102	"W"	"M"	"Incon"
2	177	"C:\Experiments\Bartholow Lab\Hannah Volpert\stimuli\White22.jpg"	"pest"	"White"	"forehead"	"Neg"	211	745	4	"0"	102	"W"	"M"	"Incon"
2	178	"C:\Experiments\Bartholow Lab\Hannah Volpert\stimuli\Black14.jpg"	"disgust"	"Black"	"eyes"	"Neg"	121	610	4	"0"	102	"W"	"M"	"Con"
2	179	"C:\Experiments\Bartholow Lab\Hannah Volpert\stimuli\Black15.jpg"	"joy"	"Black"	"nose"	"Pos"	132	556	5	"0"	102	"W"	"M"	"Incon"
2	180	"C:\Experiments\Bartholow Lab\Hannah Volpert\stimuli\Black9.jpg"	"romance"	"Black"	"eyes"	"Pos"	122	652	5	"0"	102	"W"	"M"	"Incon"
2	181	"C:\Experiments\Bartholow Lab\Hannah Volpert\stimuli\White9.jpg"	"disgust"	"White"	"eyes"	"Neg"	221	563	4	"0"	102	"W"	"M"	"Incon"
2	182	"C:\Experiments\Bartholow Lab\Hannah Volpert\stimuli\Black8.jpg"	"love"	"Black"	"nose"	"Pos"	132	511	5	"0"	102	"W"	"M"	"Incon"
2	183	"C:\Experiments\Bartholow Lab\Hannah Volpert\stimuli\Black8.jpg"	"smile"	"Black"	"forehead"	"Pos"	112	551	5	"0"	102	"W"	"M"	"Incon"
2	184	"C:\Experiments\Bartholow Lab\Hannah Volpert\stimuli\White17.jpg"	"sewage"	"White"	"nose"	"Neg"	231	584	4	"0"	102	"W"	"M"	"Incon"
2	185	"C:\Experiments\Bartholow Lab\Hannah Volpert\stimuli\White4.jpg"	"cockroach"	"White"	"eyes"	"Neg"	221	538	4	"0"	102	"W"	"M"	"Incon"
2	186	"C:\Experiments\Bartholow Lab\Hannah Volpert\stimuli\Black10.jpg"	"love"	"Black"	"eyes"	"Pos"	122	683	5	"0"	102	"W"	"M"	"Incon"
2	187	"C:\Experiments\Bartholow Lab\Hannah Volpert\stimuli\Black18.jpg"	"romance"	"Black"	"nose"	"Pos"	132	614	5	"0"	102	"W"	"M"	"Incon"
2	188	"C:\Experiments\Bartholow Lab\Hannah Volpert\stimuli\White12.jpg"	"despair"	"White"	"forehead"	"Neg"	211	546	4	"0"	102	"W"	"M"	"Incon"
2	189	"C:\Experiments\Bartholow Lab\Hannah Volpert\stimuli\Black3.jpg"	"smile"	"Black"	"nose"	"Pos"	132	622	5	"0"	102	"W"	"M"	"Incon"
2	190	"C:\Experiments\Bartholow Lab\Hannah Volpert\stimuli\Black16.jpg"	"pest"	"Black"	"eyes"	"Neg"	121	460	4	"0"	102	"W"	"M"	"Con"
2	191	"C:\Experiments\Bartholow Lab\Hannah Volpert\stimuli\White16.jpg"	"success"	"White"	"forehead"	"Pos"	212	602	5	"0"	102	"W"	"M"	"Con"
2	192	"C:\Experiments\Bartholow Lab\Hannah Volpert\stimuli\Black14.jpg"	"cockroach"	"Black"	"nose"	"Neg"	131	582	4	"0"	102	"W"	"M"	"Con"
2	193	"C:\Experiments\Bartholow Lab\Hannah Volpert\stimuli\Black10.jpg"	"beauty"	"Black"	"nose"	"Pos"	132	588	5	"0"	102	"W"	"M"	"Incon"
2	194	"C:\Experiments\Bartholow Lab\Hannah Volpert\stimuli\White8.jpg"	"vomit"	"White"	"nose"	"Neg"	231	629	4	"0"	102	"W"	"M"	"Incon"
2	195	"C:\Experiments\Bartholow Lab\Hannah Volpert\stimuli\White17.jpg"	"vomit"	"White"	"eyes"	"Neg"	221	566	4	"0"	102	"W"	"M"	"Incon"
2	196	"C:\Experiments\Bartholow Lab\Hannah Volpert\stimuli\White8.jpg"	"garbage"	"White"	"forehead"	"Neg"	211	617	4	"0"	102	"W"	"M"	"Incon"
2	197	"C:\Experiments\Bartholow Lab\Hannah Volpert\stimuli\White5.jpg"	"garbage"	"White"	"eyes"	"Neg"	221	599	4	"0"	102	"W"	"M"	"Incon"
2	198	"C:\Experiments\Bartholow Lab\Hannah Volpert\stimuli\Black7.jpg"	"beauty"	"Black"	"nose"	"Pos"	132	547	5	"0"	102	"W"	"M"	"Incon"
2	199	"C:\Experiments\Bartholow Lab\Hannah Volpert\stimuli\Black19.jpg"	"beauty"	"Black"	"nose"	"Pos"	132	580	5	"0"	102	"W"	"M"	"Incon"
2	200	"C:\Experiments\Bartholow Lab\Hannah Volpert\stimuli\Black12.jpg"	"pest"	"Black"	"forehead"	"Neg"	111	455	4	"0"	102	"W"	"M"	"Con"
2	201	"C:\Experiments\Bartholow Lab\Hannah Volpert\stimuli\White19.jpg"	"romance"	"White"	"forehead"	"Pos"	212	507	5	"0"	102	"W"	"M"	"Con"
2	202	"C:\Experiments\Bartholow Lab\Hannah Volpert\stimuli\Black22.jpg"	"vomit"	"Black"	"eyes"	"Neg"	121	532	4	"0"	102	"W"	"M"	"Con"
2	203	"C:\Experiments\Bartholow Lab\Hannah Volpert\stimuli\White18.jpg"	"poison"	"White"	"nose"	"Neg"	231	583	4	"0"	102	"W"	"M"	"Incon"
2	204	"C:\Experiments\Bartholow Lab\Hannah Volpert\stimuli\Black13.jpg"	"success"	"Black"	"nose"	"Pos"	132	701	5	"0"	102	"W"	"M"	"Incon"
2	205	"C:\Experiments\Bartholow Lab\Hannah Volpert\stimuli\Black9.jpg"	"joy"	"Black"	"nose"	"Pos"	132	652	5	"0"	102	"W"	"M"	"Incon"
2	206	"C:\Experiments\Bartholow Lab\Hannah Volpert\stimuli\Black6.jpg"	"paradise"	"Black"	"forehead"	"Pos"	112	738	5	"0"	102	"W"	"M"	"Incon"
2	207	"C:\Experiments\Bartholow Lab\Hannah Volpert\stimuli\Black12.jpg"	"cockroach"	"Black"	"nose"	"Neg"	131	600	4	"0"	102	"W"	"M"	"Con"
2	208	"C:\Experiments\Bartholow Lab\Hannah Volpert\stimuli\Black14.jpg"	"success"	"Black"	"eyes"	"Pos"	122	561	5	"0"	102	"W"	"M"	"Incon"
2	209	"C:\Experiments\Bartholow Lab\Hannah Volpert\stimuli\Black9.jpg"	"success"	"Black"	"forehead"	"Pos"	112	578	5	"0"	102	"W"	"M"	"Incon"
2	210	"C:\Experiments\Bartholow Lab\Hannah Volpert\stimuli\Black17.jpg"	"success"	"Black"	"forehead"	"Pos"	112	485	5	"0"	102	"W"	"M"	"Incon"
2	211	"C:\Experiments\Bartholow Lab\Hannah Volpert\stimuli\Black1.jpg"	"cockroach"	"Black"	"eyes"	"Neg"	121	516	4	"0"	102	"W"	"M"	"Con"
2	212	"C:\Experiments\Bartholow Lab\Hannah Volpert\stimuli\White6.jpg"	"cockroach"	"White"	"nose"	"Neg"	231	556	4	"0"	102	"W"	"M"	"Incon"
2	213	"C:\Experiments\Bartholow Lab\Hannah Volpert\stimuli\Black3.jpg"	"disgust"	"Black"	"eyes"	"Neg"	121	488	4	"0"	102	"W"	"M"	"Con"
2	214	"C:\Experiments\Bartholow Lab\Hannah Volpert\stimuli\Black4.jpg"	"garbage"	"Black"	"nose"	"Neg"	131	620	4	"0"	102	"W"	"M"	"Con"
2	215	"C:\Experiments\Bartholow Lab\Hannah Volpert\stimuli\White23.jpg"	"success"	"White"	"eyes"	"Pos"	222	674	5	"0"	102	"W"	"M"	"Con"
2	216	"C:\Experiments\Bartholow Lab\Hannah Volpert\stimuli\Black20.jpg"	"vomit"	"Black"	"eyes"	"Neg"	121	606	4	"0"	102	"W"	"M"	"Con"
2	217	"C:\Experiments\Bartholow Lab\Hannah Volpert\stimuli\Black16.jpg"	"garbage"	"Black"	"forehead"	"Neg"	111	472	4	"0"	102	"W"	"M"	"Con"
2	218	"C:\Experiments\Bartholow Lab\Hannah Volpert\stimuli\Black20.jpg"	"disgust"	"Black"	"forehead"	"Neg"	111	635	4	"0"	102	"W"	"M"	"Con"
2	219	"C:\Experiments\Bartholow Lab\Hannah Volpert\stimuli\Black12.jpg"	"paradise"	"Black"	"nose"	"Pos"	132	444	4	"1"	102	"W"	"M"	"Incon"
2	220	"C:\Experiments\Bartholow Lab\Hannah Volpert\stimuli\White11.jpg"	"love"	"White"	"nose"	"Pos"	232	472	5	"0"	102	"W"	"M"	"Con"
2	221	"C:\Experiments\Bartholow Lab\Hannah Volpert\stimuli\White2.jpg"	"romance"	"White"	"nose"	"Pos"	232	646	5	"0"	102	"W"	"M"	"Con"
2	222	"C:\Experiments\Bartholow Lab\Hannah Volpert\stimuli\White10.jpg"	"beauty"	"White"	"forehead"	"Pos"	212	585	5	"0"	102	"W"	"M"	"Con"
2	223	"C:\Experiments\Bartholow Lab\Hannah Volpert\stimuli\White2.jpg"	"paradise"	"White"	"forehead"	"Pos"	212	546	5	"0"	102	"W"	"M"	"Con"
2	224	"C:\Experiments\Bartholow Lab\Hannah Volpert\stimuli\White14.jpg"	"poison"	"White"	"forehead"	"Neg"	211	585	4	"0"	102	"W"	"M"	"Incon"
2	225	"C:\Experiments\Bartholow Lab\Hannah Volpert\stimuli\White15.jpg"	"vacation"	"White"	"nose"	"Pos"	232	671	5	"0"	102	"W"	"M"	"Con"
2	226	"C:\Experiments\Bartholow Lab\Hannah Volpert\stimuli\White6.jpg"	"poison"	"White"	"eyes"	"Neg"	221	568	4	"0"	102	"W"	"M"	"Incon"
2	227	"C:\Experiments\Bartholow Lab\Hannah Volpert\stimuli\White23.jpg"	"disgust"	"White"	"forehead"	"Neg"	211	931	4	"0"	102	"W"	"M"	"Incon"
2	228	"C:\Experiments\Bartholow Lab\Hannah Volpert\stimuli\White18.jpg"	"beauty"	"White"	"forehead"	"Pos"	212	498	5	"0"	102	"W"	"M"	"Con"
2	229	"C:\Experiments\Bartholow Lab\Hannah Volpert\stimuli\White24.jpg"	"cockroach"	"White"	"forehead"	"Neg"	211	581	4	"0"	102	"W"	"M"	"Incon"
2	230	"C:\Experiments\Bartholow Lab\Hannah Volpert\stimuli\Black14.jpg"	"smile"	"Black"	"nose"	"Pos"	132	475	5	"0"	102	"W"	"M"	"Incon"
2	231	"C:\Experiments\Bartholow Lab\Hannah Volpert\stimuli\Black12.jpg"	"romance"	"Black"	"eyes"	"Pos"	122	585	5	"0"	102	"W"	"M"	"Incon"
2	232	"C:\Experiments\Bartholow Lab\Hannah Volpert\stimuli\Black22.jpg"	"poison"	"Black"	"nose"	"Neg"	131	450	4	"0"	102	"W"	"M"	"Con"
2	233	"C:\Experiments\Bartholow Lab\Hannah Volpert\stimuli\White9.jpg"	"sewage"	"White"	"nose"	"Neg"	231	651	4	"0"	102	"W"	"M"	"Incon"
2	234	"C:\Experiments\Bartholow Lab\Hannah Volpert\stimuli\Black11.jpg"	"smile"	"Black"	"eyes"	"Pos"	122	521	5	"0"	102	"W"	"M"	"Incon"
2	235	"C:\Experiments\Bartholow Lab\Hannah Volpert\stimuli\White4.jpg"	"love"	"White"	"nose"	"Pos"	232	533	5	"0"	102	"W"	"M"	"Con"
2	236	"C:\Experiments\Bartholow Lab\Hannah Volpert\stimuli\White13.jpg"	"beauty"	"White"	"nose"	"Pos"	232	515	5	"0"	102	"W"	"M"	"Con"
2	237	"C:\Experiments\Bartholow Lab\Hannah Volpert\stimuli\White3.jpg"	"vacation"	"White"	"eyes"	"Pos"	222	543	5	"0"	102	"W"	"M"	"Con"
2	238	"C:\Experiments\Bartholow Lab\Hannah Volpert\stimuli\White1.jpg"	"pest"	"White"	"eyes"	"Neg"	221	687	4	"0"	102	"W"	"M"	"Incon"
2	239	"C:\Experiments\Bartholow Lab\Hannah Volpert\stimuli\Black18.jpg"	"poison"	"Black"	"nose"	"Neg"	131	571	4	"0"	102	"W"	"M"	"Con"
2	240	"C:\Experiments\Bartholow Lab\Hannah Volpert\stimuli\White13.jpg"	"sewage"	"White"	"nose"	"Neg"	231	511	4	"0"	102	"W"	"M"	"Incon"
2	241	"C:\Experiments\Bartholow Lab\Hannah Volpert\stimuli\White19.jpg"	"disgust"	"White"	"forehead"	"Neg"	211	618	4	"0"	102	"W"	"M"	"Incon"
2	242	"C:\Experiments\Bartholow Lab\Hannah Volpert\stimuli\White16.jpg"	"romance"	"White"	"eyes"	"Pos"	222	504	5	"0"	102	"W"	"M"	"Con"
2	243	"C:\Experiments\Bartholow Lab\Hannah Volpert\stimuli\Black15.jpg"	"despair"	"Black"	"eyes"	"Neg"	121	590	4	"0"	102	"W"	"M"	"Con"
2	244	"C:\Experiments\Bartholow Lab\Hannah Volpert\stimuli\White14.jpg"	"smile"	"White"	"forehead"	"Pos"	212	490	5	"0"	102	"W"	"M"	"Con"
2	245	"C:\Experiments\Bartholow Lab\Hannah Volpert\stimuli\Black5.jpg"	"beauty"	"Black"	"nose"	"Pos"	132	510	5	"0"	102	"W"	"M"	"Incon"
2	246	"C:\Experiments\Bartholow Lab\Hannah Volpert\stimuli\Black21.jpg"	"cockroach"	"Black"	"eyes"	"Neg"	121	562	4	"0"	102	"W"	"M"	"Con"
2	247	"C:\Experiments\Bartholow Lab\Hannah Volpert\stimuli\White12.jpg"	"success"	"White"	"nose"	"Pos"	232	518	5	"0"	102	"W"	"M"	"Con"
2	248	"C:\Experiments\Bartholow Lab\Hannah Volpert\stimuli\White4.jpg"	"disgust"	"White"	"nose"	"Neg"	231	574	4	"0"	102	"W"	"M"	"Incon"
2	249	"C:\Experiments\Bartholow Lab\Hannah Volpert\stimuli\White7.jpg"	"vacation"	"White"	"forehead"	"Pos"	212	560	5	"0"	102	"W"	"M"	"Con"
2	250	"C:\Experiments\Bartholow Lab\Hannah Volpert\stimuli\White3.jpg"	"smile"	"White"	"nose"	"Pos"	232	739	5	"0"	102	"W"	"M"	"Con"
2	251	"C:\Experiments\Bartholow Lab\Hannah Volpert\stimuli\Black9.jpg"	"vomit"	"Black"	"eyes"	"Neg"	121	522	4	"0"	102	"W"	"M"	"Con"
2	252	"C:\Experiments\Bartholow Lab\Hannah Volpert\stimuli\Black11.jpg"	"smile"	"Black"	"nose"	"Pos"	132	610	5	"0"	102	"W"	"M"	"Incon"
2	253	"C:\Experiments\Bartholow Lab\Hannah Volpert\stimuli\White2.jpg"	"poison"	"White"	"forehead"	"Neg"	211	534	4	"0"	102	"W"	"M"	"Incon"
2	254	"C:\Experiments\Bartholow Lab\Hannah Volpert\stimuli\Black2.jpg"	"joy"	"Black"	"forehead"	"Pos"	112	439	5	"0"	102	"W"	"M"	"Incon"
2	255	"C:\Experiments\Bartholow Lab\Hannah Volpert\stimuli\White8.jpg"	"beauty"	"White"	"nose"	"Pos"	232	723	5	"0"	102	"W"	"M"	"Con"
2	256	"C:\Experiments\Bartholow Lab\Hannah Volpert\stimuli\Black11.jpg"	"garbage"	"Black"	"forehead"	"Neg"	111	532	4	"0"	102	"W"	"M"	"Con"
2	257	"C:\Experiments\Bartholow Lab\Hannah Volpert\stimuli\Black19.jpg"	"garbage"	"Black"	"nose"	"Neg"	131	573	4	"0"	102	"W"	"M"	"Con"
2	258	"C:\Experiments\Bartholow Lab\Hannah Volpert\stimuli\Black18.jpg"	"sewage"	"Black"	"eyes"	"Neg"	121	551	4	"0"	102	"W"	"M"	"Con"
2	259	"C:\Experiments\Bartholow Lab\Hannah Volpert\stimuli\Black19.jpg"	"vomit"	"Black"	"eyes"	"Neg"	121	527	4	"0"	102	"W"	"M"	"Con"
2	260	"C:\Experiments\Bartholow Lab\Hannah Volpert\stimuli\Black11.jpg"	"poison"	"Black"	"eyes"	"Neg"	121	565	4	"0"	102	"W"	"M"	"Con"
2	261	"C:\Experiments\Bartholow Lab\Hannah Volpert\stimuli\White23.jpg"	"poison"	"White"	"nose"	"Neg"	231	625	4	"0"	102	"W"	"M"	"Incon"
2	262	"C:\Experiments\Bartholow Lab\Hannah Volpert\stimuli\White21.jpg"	"paradise"	"White"	"eyes"	"Pos"	222	743	5	"0"	102	"W"	"M"	"Con"
2	263	"C:\Experiments\Bartholow Lab\Hannah Volpert\stimuli\Black5.jpg"	"love"	"Black"	"forehead"	"Pos"	112	736	5	"0"	102	"W"	"M"	"Incon"
2	264	"C:\Experiments\Bartholow Lab\Hannah Volpert\stimuli\Black23.jpg"	"paradise"	"Black"	"forehead"	"Pos"	112	577	5	"0"	102	"W"	"M"	"Incon"
2	265	"C:\Experiments\Bartholow Lab\Hannah Volpert\stimuli\Black19.jpg"	"disgust"	"Black"	"forehead"	"Neg"	111	487	4	"0"	102	"W"	"M"	"Con"
2	266	"C:\Experiments\Bartholow Lab\Hannah Volpert\stimuli\Black13.jpg"	"poison"	"Black"	"eyes"	"Neg"	121	587	4	"0"	102	"W"	"M"	"Con"
2	267	"C:\Experiments\Bartholow Lab\Hannah Volpert\stimuli\Black3.jpg"	"poison"	"Black"	"nose"	"Neg"	131	590	4	"0"	102	"W"	"M"	"Con"
2	268	"C:\Experiments\Bartholow Lab\Hannah Volpert\stimuli\Black23.jpg"	"despair"	"Black"	"eyes"	"Neg"	121	538	4	"0"	102	"W"	"M"	"Con"
2	269	"C:\Experiments\Bartholow Lab\Hannah Volpert\stimuli\Black18.jpg"	"beauty"	"Black"	"eyes"	"Pos"	122	555	5	"0"	102	"W"	"M"	"Incon"
2	270	"C:\Experiments\Bartholow Lab\Hannah Volpert\stimuli\White10.jpg"	"poison"	"White"	"nose"	"Neg"	231	460	4	"0"	102	"W"	"M"	"Incon"
2	271	"C:\Experiments\Bartholow Lab\Hannah Volpert\stimuli\White16.jpg"	"disgust"	"White"	"forehead"	"Neg"	211	538	4	"0"	102	"W"	"M"	"Incon"
2	272	"C:\Experiments\Bartholow Lab\Hannah Volpert\stimuli\Black16.jpg"	"romance"	"Black"	"nose"	"Pos"	132	424	5	"0"	102	"W"	"M"	"Incon"
2	273	"C:\Experiments\Bartholow Lab\Hannah Volpert\stimuli\Black13.jpg"	"garbage"	"Black"	"forehead"	"Neg"	111	526	4	"0"	102	"W"	"M"	"Con"
2	274	"C:\Experiments\Bartholow Lab\Hannah Volpert\stimuli\White24.jpg"	"smile"	"White"	"eyes"	"Pos"	222	535	5	"0"	102	"W"	"M"	"Con"
2	275	"C:\Experiments\Bartholow Lab\Hannah Volpert\stimuli\Black2.jpg"	"vomit"	"Black"	"forehead"	"Neg"	111	533	4	"0"	102	"W"	"M"	"Con"
2	276	"C:\Experiments\Bartholow Lab\Hannah Volpert\stimuli\Black16.jpg"	"beauty"	"Black"	"forehead"	"Pos"	112	564	5	"0"	102	"W"	"M"	"Incon"
2	277	"C:\Experiments\Bartholow Lab\Hannah Volpert\stimuli\Black23.jpg"	"garbage"	"Black"	"forehead"	"Neg"	111	400	4	"0"	102	"W"	"M"	"Con"
2	278	"C:\Experiments\Bartholow Lab\Hannah Volpert\stimuli\Black1.jpg"	"beauty"	"Black"	"nose"	"Pos"	132	542	5	"0"	102	"W"	"M"	"Incon"
2	279	"C:\Experiments\Bartholow Lab\Hannah Volpert\stimuli\White6.jpg"	"sewage"	"White"	"forehead"	"Neg"	211	572	4	"0"	102	"W"	"M"	"Incon"
2	280	"C:\Experiments\Bartholow Lab\Hannah Volpert\stimuli\White21.jpg"	"smile"	"White"	"forehead"	"Pos"	212	471	5	"0"	102	"W"	"M"	"Con"
2	281	"C:\Experiments\Bartholow Lab\Hannah Volpert\stimuli\Black16.jpg"	"vomit"	"Black"	"nose"	"Neg"	131	518	4	"0"	102	"W"	"M"	"Con"
2	282	"C:\Experiments\Bartholow Lab\Hannah Volpert\stimuli\Black1.jpg"	"despair"	"Black"	"nose"	"Neg"	131	535	4	"0"	102	"W"	"M"	"Con"
2	283	"C:\Experiments\Bartholow Lab\Hannah Volpert\stimuli\Black15.jpg"	"paradise"	"Black"	"forehead"	"Pos"	112	491	4	"1"	102	"W"	"M"	"Incon"
2	284	"C:\Experiments\Bartholow Lab\Hannah Volpert\stimuli\Black23.jpg"	"beauty"	"Black"	"nose"	"Pos"	132	574	5	"0"	102	"W"	"M"	"Incon"
2	285	"C:\Experiments\Bartholow Lab\Hannah Volpert\stimuli\Black10.jpg"	"pest"	"Black"	"nose"	"Neg"	131	564	4	"0"	102	"W"	"M"	"Con"
2	286	"C:\Experiments\Bartholow Lab\Hannah Volpert\stimuli\Black22.jpg"	"vacation"	"Black"	"eyes"	"Pos"	122	616	5	"0"	102	"W"	"M"	"Incon"
2	287	"C:\Experiments\Bartholow Lab\Hannah Volpert\stimuli\Black10.jpg"	"disgust"	"Black"	"forehead"	"Neg"	111	694	4	"0"	102	"W"	"M"	"Con"
2	288	"C:\Experiments\Bartholow Lab\Hannah Volpert\stimuli\White14.jpg"	"poison"	"White"	"eyes"	"Neg"	221	634	4	"0"	102	"W"	"M"	"Incon"
2	1	"C:\Experiments\Bartholow Lab\Hannah Volpert\stimuli\White12.jpg"	"vomit"	"White"	"eyes"	"Neg"	221	609	4	"0"	103	"W"	"M"	"Incon"
2	2	"C:\Experiments\Bartholow Lab\Hannah Volpert\stimuli\White9.jpg"	"disgust"	"White"	"forehead"	"Neg"	211	588	4	"0"	103	"W"	"M"	"Incon"
2	3	"C:\Experiments\Bartholow Lab\Hannah Volpert\stimuli\White23.jpg"	"sewage"	"White"	"eyes"	"Neg"	221	637	4	"0"	103	"W"	"M"	"Incon"
2	4	"C:\Experiments\Bartholow Lab\Hannah Volpert\stimuli\White12.jpg"	"disgust"	"White"	"forehead"	"Neg"	211	556	4	"0"	103	"W"	"M"	"Incon"
2	5	"C:\Experiments\Bartholow Lab\Hannah Volpert\stimuli\Black11.jpg"	"despair"	"Black"	"eyes"	"Neg"	121	504	4	"0"	103	"W"	"M"	"Con"
2	6	"C:\Experiments\Bartholow Lab\Hannah Volpert\stimuli\Black10.jpg"	"pest"	"Black"	"forehead"	"Neg"	111	529	4	"0"	103	"W"	"M"	"Con"
2	7	"C:\Experiments\Bartholow Lab\Hannah Volpert\stimuli\White21.jpg"	"paradise"	"White"	"eyes"	"Pos"	222	594	5	"0"	103	"W"	"M"	"Con"
2	8	"C:\Experiments\Bartholow Lab\Hannah Volpert\stimuli\Black9.jpg"	"beauty"	"Black"	"forehead"	"Pos"	112	525	5	"0"	103	"W"	"M"	"Incon"
2	9	"C:\Experiments\Bartholow Lab\Hannah Volpert\stimuli\White16.jpg"	"cockroach"	"White"	"forehead"	"Neg"	211	569	4	"0"	103	"W"	"M"	"Incon"
2	10	"C:\Experiments\Bartholow Lab\Hannah Volpert\stimuli\Black20.jpg"	"cockroach"	"Black"	"forehead"	"Neg"	111	527	4	"0"	103	"W"	"M"	"Con"
2	11	"C:\Experiments\Bartholow Lab\Hannah Volpert\stimuli\White11.jpg"	"sewage"	"White"	"forehead"	"Neg"	211	539	4	"0"	103	"W"	"M"	"Incon"
2	12	"C:\Experiments\Bartholow Lab\Hannah Volpert\stimuli\White13.jpg"	"garbage"	"White"	"nose"	"Neg"	231	489	4	"0"	103	"W"	"M"	"Incon"
2	13	"C:\Experiments\Bartholow Lab\Hannah Volpert\stimuli\White16.jpg"	"joy"	"White"	"forehead"	"Pos"	212	540	5	"0"	103	"W"	"M"	"Con"
2	14	"C:\Experiments\Bartholow Lab\Hannah Volpert\stimuli\Black17.jpg"	"sewage"	"Black"	"eyes"	"Neg"	121	456	4	"0"	103	"W"	"M"	"Con"
2	15	"C:\Experiments\Bartholow Lab\Hannah Volpert\stimuli\White17.jpg"	"joy"	"White"	"eyes"	"Pos"	222	499	5	"0"	103	"W"	"M"	"Con"
2	16	"C:\Experiments\Bartholow Lab\Hannah Volpert\stimuli\Black17.jpg"	"paradise"	"Black"	"nose"	"Pos"	132	532	5	"0"	103	"W"	"M"	"Incon"
2	17	"C:\Experiments\Bartholow Lab\Hannah Volpert\stimuli\White19.jpg"	"success"	"White"	"nose"	"Pos"	232	530	5	"0"	103	"W"	"M"	"Con"
2	18	"C:\Experiments\Bartholow Lab\Hannah Volpert\stimuli\White8.jpg"	"vacation"	"White"	"nose"	"Pos"	232	686	5	"0"	103	"W"	"M"	"Con"
2	19	"C:\Experiments\Bartholow Lab\Hannah Volpert\stimuli\White21.jpg"	"love"	"White"	"nose"	"Pos"	232	527	5	"0"	103	"W"	"M"	"Con"
2	20	"C:\Experiments\Bartholow Lab\Hannah Volpert\stimuli\White19.jpg"	"romance"	"White"	"forehead"	"Pos"	212	477	5	"0"	103	"W"	"M"	"Con"
2	21	"C:\Experiments\Bartholow Lab\Hannah Volpert\stimuli\Black13.jpg"	"pest"	"Black"	"nose"	"Neg"	131	587	4	"0"	103	"W"	"M"	"Con"
2	22	"C:\Experiments\Bartholow Lab\Hannah Volpert\stimuli\Black18.jpg"	"poison"	"Black"	"nose"	"Neg"	131	548	4	"0"	103	"W"	"M"	"Con"
2	23	"C:\Experiments\Bartholow Lab\Hannah Volpert\stimuli\Black24.jpg"	"love"	"Black"	"eyes"	"Pos"	122	520	5	"0"	103	"W"	"M"	"Incon"
2	24	"C:\Experiments\Bartholow Lab\Hannah Volpert\stimuli\Black10.jpg"	"poison"	"Black"	"eyes"	"Neg"	121	547	4	"0"	103	"W"	"M"	"Con"
2	25	"C:\Experiments\Bartholow Lab\Hannah Volpert\stimuli\Black8.jpg"	"disgust"	"Black"	"nose"	"Neg"	131	516	4	"0"	103	"W"	"M"	"Con"
2	26	"C:\Experiments\Bartholow Lab\Hannah Volpert\stimuli\White20.jpg"	"beauty"	"White"	"nose"	"Pos"	232	453	5	"0"	103	"W"	"M"	"Con"
2	27	"C:\Experiments\Bartholow Lab\Hannah Volpert\stimuli\Black9.jpg"	"smile"	"Black"	"eyes"	"Pos"	122	499	5	"0"	103	"W"	"M"	"Incon"
2	28	"C:\Experiments\Bartholow Lab\Hannah Volpert\stimuli\White21.jpg"	"sewage"	"White"	"forehead"	"Neg"	211	525	4	"0"	103	"W"	"M"	"Incon"
2	29	"C:\Experiments\Bartholow Lab\Hannah Volpert\stimuli\Black15.jpg"	"pest"	"Black"	"nose"	"Neg"	131	438	4	"0"	103	"W"	"M"	"Con"
2	30	"C:\Experiments\Bartholow Lab\Hannah Volpert\stimuli\Black1.jpg"	"vomit"	"Black"	"forehead"	"Neg"	111	460	4	"0"	103	"W"	"M"	"Con"
2	31	"C:\Experiments\Bartholow Lab\Hannah Volpert\stimuli\Black4.jpg"	"pest"	"Black"	"nose"	"Neg"	131	540	4	"0"	103	"W"	"M"	"Con"
2	32	"C:\Experiments\Bartholow Lab\Hannah Volpert\stimuli\Black5.jpg"	"love"	"Black"	"eyes"	"Pos"	122	525	5	"0"	103	"W"	"M"	"Incon"
2	33	"C:\Experiments\Bartholow Lab\Hannah Volpert\stimuli\Black24.jpg"	"paradise"	"Black"	"nose"	"Pos"	132	540	5	"0"	103	"W"	"M"	"Incon"
2	34	"C:\Experiments\Bartholow Lab\Hannah Volpert\stimuli\White9.jpg"	"beauty"	"White"	"eyes"	"Pos"	222	524	5	"0"	103	"W"	"M"	"Con"
2	35	"C:\Experiments\Bartholow Lab\Hannah Volpert\stimuli\Black11.jpg"	"cockroach"	"Black"	"forehead"	"Neg"	111	579	4	"0"	103	"W"	"M"	"Con"
2	36	"C:\Experiments\Bartholow Lab\Hannah Volpert\stimuli\Black21.jpg"	"pest"	"Black"	"nose"	"Neg"	131	558	4	"0"	103	"W"	"M"	"Con"
2	37	"C:\Experiments\Bartholow Lab\Hannah Volpert\stimuli\Black11.jpg"	"garbage"	"Black"	"nose"	"Neg"	131	634	4	"0"	103	"W"	"M"	"Con"
2	38	"C:\Experiments\Bartholow Lab\Hannah Volpert\stimuli\White16.jpg"	"beauty"	"White"	"eyes"	"Pos"	222	507	5	"0"	103	"W"	"M"	"Con"
2	39	"C:\Experiments\Bartholow Lab\Hannah Volpert\stimuli\Black4.jpg"	"smile"	"Black"	"forehead"	"Pos"	112	598	5	"0"	103	"W"	"M"	"Incon"
2	40	"C:\Experiments\Bartholow Lab\Hannah Volpert\stimuli\White18.jpg"	"success"	"White"	"nose"	"Pos"	232	610	5	"0"	103	"W"	"M"	"Con"
2	41	"C:\Experiments\Bartholow Lab\Hannah Volpert\stimuli\Black23.jpg"	"romance"	"Black"	"nose"	"Pos"	132	462	5	"0"	103	"W"	"M"	"Incon"
2	42	"C:\Experiments\Bartholow Lab\Hannah Volpert\stimuli\White17.jpg"	"disgust"	"White"	"eyes"	"Neg"	221	492	4	"0"	103	"W"	"M"	"Incon"
2	43	"C:\Experiments\Bartholow Lab\Hannah Volpert\stimuli\Black19.jpg"	"success"	"Black"	"nose"	"Pos"	132	463	5	"0"	103	"W"	"M"	"Incon"
2	44	"C:\Experiments\Bartholow Lab\Hannah Volpert\stimuli\Black11.jpg"	"love"	"Black"	"forehead"	"Pos"	112	534	5	"0"	103	"W"	"M"	"Incon"
2	45	"C:\Experiments\Bartholow Lab\Hannah Volpert\stimuli\Black8.jpg"	"pest"	"Black"	"eyes"	"Neg"	121	516	4	"0"	103	"W"	"M"	"Con"
2	46	"C:\Experiments\Bartholow Lab\Hannah Volpert\stimuli\White2.jpg"	"joy"	"White"	"forehead"	"Pos"	212	509	5	"0"	103	"W"	"M"	"Con"
2	47	"C:\Experiments\Bartholow Lab\Hannah Volpert\stimuli\White10.jpg"	"romance"	"White"	"nose"	"Pos"	232	550	4	"1"	103	"W"	"M"	"Con"
2	48	"C:\Experiments\Bartholow Lab\Hannah Volpert\stimuli\White24.jpg"	"paradise"	"White"	"nose"	"Pos"	232	550	5	"0"	103	"W"	"M"	"Con"
2	49	"C:\Experiments\Bartholow Lab\Hannah Volpert\stimuli\Black10.jpg"	"paradise"	"Black"	"eyes"	"Pos"	122	551	5	"0"	103	"W"	"M"	"Incon"
2	50	"C:\Experiments\Bartholow Lab\Hannah Volpert\stimuli\White3.jpg"	"disgust"	"White"	"forehead"	"Neg"	211	568	4	"0"	103	"W"	"M"	"Incon"
2	51	"C:\Experiments\Bartholow Lab\Hannah Volpert\stimuli\White10.jpg"	"vacation"	"White"	"eyes"	"Pos"	222	524	5	"0"	103	"W"	"M"	"Con"
2	52	"C:\Experiments\Bartholow Lab\Hannah Volpert\stimuli\Black14.jpg"	"cockroach"	"Black"	"nose"	"Neg"	131	578	4	"0"	103	"W"	"M"	"Con"
2	53	"C:\Experiments\Bartholow Lab\Hannah Volpert\stimuli\Black18.jpg"	"pest"	"Black"	"eyes"	"Neg"	121	568	4	"0"	103	"W"	"M"	"Con"
2	54	"C:\Experiments\Bartholow Lab\Hannah Volpert\stimuli\Black7.jpg"	"despair"	"Black"	"eyes"	"Neg"	121	732	4	"0"	103	"W"	"M"	"Con"
2	55	"C:\Experiments\Bartholow Lab\Hannah Volpert\stimuli\Black22.jpg"	"vomit"	"Black"	"forehead"	"Neg"	111	594	4	"0"	103	"W"	"M"	"Con"
2	56	"C:\Experiments\Bartholow Lab\Hannah Volpert\stimuli\Black4.jpg"	"beauty"	"Black"	"eyes"	"Pos"	122	558	5	"0"	103	"W"	"M"	"Incon"
2	57	"C:\Experiments\Bartholow Lab\Hannah Volpert\stimuli\White15.jpg"	"smile"	"White"	"nose"	"Pos"	232	575	5	"0"	103	"W"	"M"	"Con"
2	58	"C:\Experiments\Bartholow Lab\Hannah Volpert\stimuli\White10.jpg"	"love"	"White"	"forehead"	"Pos"	212	549	5	"0"	103	"W"	"M"	"Con"
2	59	"C:\Experiments\Bartholow Lab\Hannah Volpert\stimuli\Black16.jpg"	"despair"	"Black"	"eyes"	"Neg"	121	550	4	"0"	103	"W"	"M"	"Con"
2	60	"C:\Experiments\Bartholow Lab\Hannah Volpert\stimuli\Black22.jpg"	"disgust"	"Black"	"nose"	"Neg"	131	550	4	"0"	103	"W"	"M"	"Con"
2	61	"C:\Experiments\Bartholow Lab\Hannah Volpert\stimuli\White12.jpg"	"pest"	"White"	"nose"	"Neg"	231	807	4	"0"	103	"W"	"M"	"Incon"
2	62	"C:\Experiments\Bartholow Lab\Hannah Volpert\stimuli\Black8.jpg"	"love"	"Black"	"nose"	"Pos"	132	507	5	"0"	103	"W"	"M"	"Incon"
2	63	"C:\Experiments\Bartholow Lab\Hannah Volpert\stimuli\White19.jpg"	"paradise"	"White"	"eyes"	"Pos"	222	545	5	"0"	103	"W"	"M"	"Con"
2	64	"C:\Experiments\Bartholow Lab\Hannah Volpert\stimuli\Black5.jpg"	"romance"	"Black"	"forehead"	"Pos"	112	594	5	"0"	103	"W"	"M"	"Incon"
2	65	"C:\Experiments\Bartholow Lab\Hannah Volpert\stimuli\White5.jpg"	"vomit"	"White"	"eyes"	"Neg"	221	555	4	"0"	103	"W"	"M"	"Incon"
2	66	"C:\Experiments\Bartholow Lab\Hannah Volpert\stimuli\Black23.jpg"	"vomit"	"Black"	"forehead"	"Neg"	111	700	4	"0"	103	"W"	"M"	"Con"
2	67	"C:\Experiments\Bartholow Lab\Hannah Volpert\stimuli\White16.jpg"	"despair"	"White"	"eyes"	"Neg"	221	506	4	"0"	103	"W"	"M"	"Incon"
2	68	"C:\Experiments\Bartholow Lab\Hannah Volpert\stimuli\Black15.jpg"	"success"	"Black"	"nose"	"Pos"	132	483	5	"0"	103	"W"	"M"	"Incon"
2	69	"C:\Experiments\Bartholow Lab\Hannah Volpert\stimuli\White2.jpg"	"pest"	"White"	"eyes"	"Neg"	221	521	4	"0"	103	"W"	"M"	"Incon"
2	70	"C:\Experiments\Bartholow Lab\Hannah Volpert\stimuli\White18.jpg"	"smile"	"White"	"forehead"	"Pos"	212	554	5	"0"	103	"W"	"M"	"Con"
2	71	"C:\Experiments\Bartholow Lab\Hannah Volpert\stimuli\White22.jpg"	"vomit"	"White"	"forehead"	"Neg"	211	489	4	"0"	103	"W"	"M"	"Incon"
2	72	"C:\Experiments\Bartholow Lab\Hannah Volpert\stimuli\Black2.jpg"	"sewage"	"Black"	"forehead"	"Neg"	111	652	4	"0"	103	"W"	"M"	"Con"
2	73	"C:\Experiments\Bartholow Lab\Hannah Volpert\stimuli\White6.jpg"	"romance"	"White"	"nose"	"Pos"	232	963	5	"0"	103	"W"	"M"	"Con"
2	74	"C:\Experiments\Bartholow Lab\Hannah Volpert\stimuli\Black21.jpg"	"poison"	"Black"	"eyes"	"Neg"	121	620	4	"0"	103	"W"	"M"	"Con"
2	75	"C:\Experiments\Bartholow Lab\Hannah Volpert\stimuli\Black16.jpg"	"paradise"	"Black"	"nose"	"Pos"	132	619	5	"0"	103	"W"	"M"	"Incon"
2	76	"C:\Experiments\Bartholow Lab\Hannah Volpert\stimuli\Black22.jpg"	"joy"	"Black"	"nose"	"Pos"	132	505	5	"0"	103	"W"	"M"	"Incon"
2	77	"C:\Experiments\Bartholow Lab\Hannah Volpert\stimuli\White18.jpg"	"sewage"	"White"	"nose"	"Neg"	231	532	4	"0"	103	"W"	"M"	"Incon"
2	78	"C:\Experiments\Bartholow Lab\Hannah Volpert\stimuli\Black17.jpg"	"romance"	"Black"	"forehead"	"Pos"	112	571	5	"0"	103	"W"	"M"	"Incon"
2	79	"C:\Experiments\Bartholow Lab\Hannah Volpert\stimuli\Black4.jpg"	"despair"	"Black"	"eyes"	"Neg"	121	497	4	"0"	103	"W"	"M"	"Con"
2	80	"C:\Experiments\Bartholow Lab\Hannah Volpert\stimuli\White22.jpg"	"joy"	"White"	"nose"	"Pos"	232	519	5	"0"	103	"W"	"M"	"Con"
2	81	"C:\Experiments\Bartholow Lab\Hannah Volpert\stimuli\Black6.jpg"	"sewage"	"Black"	"forehead"	"Neg"	111	544	4	"0"	103	"W"	"M"	"Con"
2	82	"C:\Experiments\Bartholow Lab\Hannah Volpert\stimuli\White1.jpg"	"despair"	"White"	"nose"	"Neg"	231	926	4	"0"	103	"W"	"M"	"Incon"
2	83	"C:\Experiments\Bartholow Lab\Hannah Volpert\stimuli\Black4.jpg"	"success"	"Black"	"nose"	"Pos"	132	541	5	"0"	103	"W"	"M"	"Incon"
2	84	"C:\Experiments\Bartholow Lab\Hannah Volpert\stimuli\White9.jpg"	"despair"	"White"	"eyes"	"Neg"	221	411	4	"0"	103	"W"	"M"	"Incon"
2	85	"C:\Experiments\Bartholow Lab\Hannah Volpert\stimuli\Black5.jpg"	"joy"	"Black"	"nose"	"Pos"	132	590	5	"0"	103	"W"	"M"	"Incon"
2	86	"C:\Experiments\Bartholow Lab\Hannah Volpert\stimuli\White24.jpg"	"poison"	"White"	"forehead"	"Neg"	211	538	4	"0"	103	"W"	"M"	"Incon"
2	87	"C:\Experiments\Bartholow Lab\Hannah Volpert\stimuli\White7.jpg"	"success"	"White"	"forehead"	"Pos"	212	523	5	"0"	103	"W"	"M"	"Con"
2	88	"C:\Experiments\Bartholow Lab\Hannah Volpert\stimuli\White1.jpg"	"poison"	"White"	"eyes"	"Neg"	221	598	4	"0"	103	"W"	"M"	"Incon"
2	89	"C:\Experiments\Bartholow Lab\Hannah Volpert\stimuli\Black13.jpg"	"despair"	"Black"	"forehead"	"Neg"	111	594	4	"0"	103	"W"	"M"	"Con"
2	90	"C:\Experiments\Bartholow Lab\Hannah Volpert\stimuli\White22.jpg"	"vomit"	"White"	"nose"	"Neg"	231	491	4	"0"	103	"W"	"M"	"Incon"
2	91	"C:\Experiments\Bartholow Lab\Hannah Volpert\stimuli\Black7.jpg"	"poison"	"Black"	"nose"	"Neg"	131	414	4	"0"	103	"W"	"M"	"Con"
2	92	"C:\Experiments\Bartholow Lab\Hannah Volpert\stimuli\Black12.jpg"	"sewage"	"Black"	"forehead"	"Neg"	111	468	4	"0"	103	"W"	"M"	"Con"
2	93	"C:\Experiments\Bartholow Lab\Hannah Volpert\stimuli\Black16.jpg"	"joy"	"Black"	"forehead"	"Pos"	112	533	5	"0"	103	"W"	"M"	"Incon"
2	94	"C:\Experiments\Bartholow Lab\Hannah Volpert\stimuli\White24.jpg"	"disgust"	"White"	"eyes"	"Neg"	221	449	4	"0"	103	"W"	"M"	"Incon"
2	95	"C:\Experiments\Bartholow Lab\Hannah Volpert\stimuli\White8.jpg"	"joy"	"White"	"forehead"	"Pos"	212	492	5	"0"	103	"W"	"M"	"Con"
2	96	"C:\Experiments\Bartholow Lab\Hannah Volpert\stimuli\Black18.jpg"	"love"	"Black"	"eyes"	"Pos"	122	578	5	"0"	103	"W"	"M"	"Incon"
2	97	"C:\Experiments\Bartholow Lab\Hannah Volpert\stimuli\White24.jpg"	"smile"	"White"	"eyes"	"Pos"	222	601	5	"0"	103	"W"	"M"	"Con"
2	98	"C:\Experiments\Bartholow Lab\Hannah Volpert\stimuli\Black24.jpg"	"sewage"	"Black"	"nose"	"Neg"	131	532	4	"0"	103	"W"	"M"	"Con"
2	99	"C:\Experiments\Bartholow Lab\Hannah Volpert\stimuli\White23.jpg"	"love"	"White"	"eyes"	"Pos"	222	458	5	"0"	103	"W"	"M"	"Con"
2	100	"C:\Experiments\Bartholow Lab\Hannah Volpert\stimuli\White23.jpg"	"beauty"	"White"	"nose"	"Pos"	232	547	5	"0"	103	"W"	"M"	"Con"
2	101	"C:\Experiments\Bartholow Lab\Hannah Volpert\stimuli\White14.jpg"	"garbage"	"White"	"eyes"	"Neg"	221	570	4	"0"	103	"W"	"M"	"Incon"
2	102	"C:\Experiments\Bartholow Lab\Hannah Volpert\stimuli\Black7.jpg"	"beauty"	"Black"	"eyes"	"Pos"	122	493	5	"0"	103	"W"	"M"	"Incon"
2	103	"C:\Experiments\Bartholow Lab\Hannah Volpert\stimuli\White2.jpg"	"love"	"White"	"nose"	"Pos"	232	547	5	"0"	103	"W"	"M"	"Con"
2	104	"C:\Experiments\Bartholow Lab\Hannah Volpert\stimuli\White12.jpg"	"beauty"	"White"	"forehead"	"Pos"	212	532	5	"0"	103	"W"	"M"	"Con"
2	105	"C:\Experiments\Bartholow Lab\Hannah Volpert\stimuli\White5.jpg"	"vacation"	"White"	"nose"	"Pos"	232	962	5	"0"	103	"W"	"M"	"Con"
2	106	"C:\Experiments\Bartholow Lab\Hannah Volpert\stimuli\Black1.jpg"	"romance"	"Black"	"forehead"	"Pos"	112	497	5	"0"	103	"W"	"M"	"Incon"
2	107	"C:\Experiments\Bartholow Lab\Hannah Volpert\stimuli\White22.jpg"	"joy"	"White"	"forehead"	"Pos"	212	631	5	"0"	103	"W"	"M"	"Con"
2	108	"C:\Experiments\Bartholow Lab\Hannah Volpert\stimuli\White1.jpg"	"beauty"	"White"	"forehead"	"Pos"	212	520	5	"0"	103	"W"	"M"	"Con"
2	109	"C:\Experiments\Bartholow Lab\Hannah Volpert\stimuli\Black10.jpg"	"vacation"	"Black"	"nose"	"Pos"	132	547	5	"0"	103	"W"	"M"	"Incon"
2	110	"C:\Experiments\Bartholow Lab\Hannah Volpert\stimuli\Black15.jpg"	"love"	"Black"	"eyes"	"Pos"	122	484	5	"0"	103	"W"	"M"	"Incon"
2	111	"C:\Experiments\Bartholow Lab\Hannah Volpert\stimuli\Black21.jpg"	"romance"	"Black"	"nose"	"Pos"	132	592	5	"0"	103	"W"	"M"	"Incon"
2	112	"C:\Experiments\Bartholow Lab\Hannah Volpert\stimuli\Black13.jpg"	"paradise"	"Black"	"forehead"	"Pos"	112	777	5	"0"	103	"W"	"M"	"Incon"
2	113	"C:\Experiments\Bartholow Lab\Hannah Volpert\stimuli\Black23.jpg"	"pest"	"Black"	"nose"	"Neg"	131	567	4	"0"	103	"W"	"M"	"Con"
2	114	"C:\Experiments\Bartholow Lab\Hannah Volpert\stimuli\White3.jpg"	"sewage"	"White"	"eyes"	"Neg"	221	586	4	"0"	103	"W"	"M"	"Incon"
2	115	"C:\Experiments\Bartholow Lab\Hannah Volpert\stimuli\Black2.jpg"	"vacation"	"Black"	"eyes"	"Pos"	122	673	5	"0"	103	"W"	"M"	"Incon"
2	116	"C:\Experiments\Bartholow Lab\Hannah Volpert\stimuli\White15.jpg"	"pest"	"White"	"nose"	"Neg"	231	665	4	"0"	103	"W"	"M"	"Incon"
2	117	"C:\Experiments\Bartholow Lab\Hannah Volpert\stimuli\White11.jpg"	"poison"	"White"	"eyes"	"Neg"	221	530	4	"0"	103	"W"	"M"	"Incon"
2	118	"C:\Experiments\Bartholow Lab\Hannah Volpert\stimuli\Black20.jpg"	"sewage"	"Black"	"eyes"	"Neg"	121	609	4	"0"	103	"W"	"M"	"Con"
2	119	"C:\Experiments\Bartholow Lab\Hannah Volpert\stimuli\White2.jpg"	"cockroach"	"White"	"nose"	"Neg"	231	588	4	"0"	103	"W"	"M"	"Incon"
2	120	"C:\Experiments\Bartholow Lab\Hannah Volpert\stimuli\Black12.jpg"	"smile"	"Black"	"forehead"	"Pos"	112	613	5	"0"	103	"W"	"M"	"Incon"
2	121	"C:\Experiments\Bartholow Lab\Hannah Volpert\stimuli\White11.jpg"	"paradise"	"White"	"forehead"	"Pos"	212	595	5	"0"	103	"W"	"M"	"Con"
2	122	"C:\Experiments\Bartholow Lab\Hannah Volpert\stimuli\White10.jpg"	"cockroach"	"White"	"forehead"	"Neg"	211	524	4	"0"	103	"W"	"M"	"Incon"
2	123	"C:\Experiments\Bartholow Lab\Hannah Volpert\stimuli\White4.jpg"	"cockroach"	"White"	"eyes"	"Neg"	221	581	4	"0"	103	"W"	"M"	"Incon"
2	124	"C:\Experiments\Bartholow Lab\Hannah Volpert\stimuli\Black12.jpg"	"love"	"Black"	"nose"	"Pos"	132	475	5	"0"	103	"W"	"M"	"Incon"
2	125	"C:\Experiments\Bartholow Lab\Hannah Volpert\stimuli\Black14.jpg"	"romance"	"Black"	"eyes"	"Pos"	122	569	5	"0"	103	"W"	"M"	"Incon"
2	126	"C:\Experiments\Bartholow Lab\Hannah Volpert\stimuli\White15.jpg"	"sewage"	"White"	"forehead"	"Neg"	211	554	4	"0"	103	"W"	"M"	"Incon"
2	127	"C:\Experiments\Bartholow Lab\Hannah Volpert\stimuli\Black20.jpg"	"smile"	"Black"	"eyes"	"Pos"	122	523	5	"0"	103	"W"	"M"	"Incon"
2	128	"C:\Experiments\Bartholow Lab\Hannah Volpert\stimuli\Black19.jpg"	"cockroach"	"Black"	"eyes"	"Neg"	121	551	4	"0"	103	"W"	"M"	"Con"
2	129	"C:\Experiments\Bartholow Lab\Hannah Volpert\stimuli\Black20.jpg"	"vacation"	"Black"	"forehead"	"Pos"	112	538	5	"0"	103	"W"	"M"	"Incon"
2	130	"C:\Experiments\Bartholow Lab\Hannah Volpert\stimuli\White5.jpg"	"pest"	"White"	"nose"	"Neg"	231	568	4	"0"	103	"W"	"M"	"Incon"
2	131	"C:\Experiments\Bartholow Lab\Hannah Volpert\stimuli\White13.jpg"	"sewage"	"White"	"eyes"	"Neg"	221	572	4	"0"	103	"W"	"M"	"Incon"
2	132	"C:\Experiments\Bartholow Lab\Hannah Volpert\stimuli\Black19.jpg"	"disgust"	"Black"	"nose"	"Neg"	131	658	4	"0"	103	"W"	"M"	"Con"
2	133	"C:\Experiments\Bartholow Lab\Hannah Volpert\stimuli\White6.jpg"	"beauty"	"White"	"forehead"	"Pos"	212	552	5	"0"	103	"W"	"M"	"Con"
2	134	"C:\Experiments\Bartholow Lab\Hannah Volpert\stimuli\Black9.jpg"	"success"	"Black"	"nose"	"Pos"	132	585	5	"0"	103	"W"	"M"	"Incon"
2	135	"C:\Experiments\Bartholow Lab\Hannah Volpert\stimuli\Black8.jpg"	"vomit"	"Black"	"forehead"	"Neg"	111	578	4	"0"	103	"W"	"M"	"Con"
2	136	"C:\Experiments\Bartholow Lab\Hannah Volpert\stimuli\White3.jpg"	"love"	"White"	"nose"	"Pos"	232	552	5	"0"	103	"W"	"M"	"Con"
2	137	"C:\Experiments\Bartholow Lab\Hannah Volpert\stimuli\White3.jpg"	"romance"	"White"	"eyes"	"Pos"	222	521	5	"0"	103	"W"	"M"	"Con"
2	138	"C:\Experiments\Bartholow Lab\Hannah Volpert\stimuli\Black1.jpg"	"joy"	"Black"	"eyes"	"Pos"	122	623	5	"0"	103	"W"	"M"	"Incon"
2	139	"C:\Experiments\Bartholow Lab\Hannah Volpert\stimuli\Black3.jpg"	"success"	"Black"	"eyes"	"Pos"	122	648	5	"0"	103	"W"	"M"	"Incon"
2	140	"C:\Experiments\Bartholow Lab\Hannah Volpert\stimuli\White24.jpg"	"pest"	"White"	"nose"	"Neg"	231	588	4	"0"	103	"W"	"M"	"Incon"
2	141	"C:\Experiments\Bartholow Lab\Hannah Volpert\stimuli\Black23.jpg"	"beauty"	"Black"	"forehead"	"Pos"	112	645	5	"0"	103	"W"	"M"	"Incon"
2	142	"C:\Experiments\Bartholow Lab\Hannah Volpert\stimuli\Black14.jpg"	"smile"	"Black"	"nose"	"Pos"	132	792	5	"0"	103	"W"	"M"	"Incon"
2	143	"C:\Experiments\Bartholow Lab\Hannah Volpert\stimuli\White1.jpg"	"success"	"White"	"nose"	"Pos"	232	681	5	"0"	103	"W"	"M"	"Con"
2	144	"C:\Experiments\Bartholow Lab\Hannah Volpert\stimuli\Black15.jpg"	"vomit"	"Black"	"eyes"	"Neg"	121	693	4	"0"	103	"W"	"M"	"Con"
2	145	"C:\Experiments\Bartholow Lab\Hannah Volpert\stimuli\Black7.jpg"	"joy"	"Black"	"forehead"	"Pos"	112	412	5	"0"	103	"W"	"M"	"Incon"
2	146	"C:\Experiments\Bartholow Lab\Hannah Volpert\stimuli\White3.jpg"	"poison"	"White"	"nose"	"Neg"	231	546	4	"0"	103	"W"	"M"	"Incon"
2	147	"C:\Experiments\Bartholow Lab\Hannah Volpert\stimuli\Black14.jpg"	"vomit"	"Black"	"forehead"	"Neg"	111	1011	4	"0"	103	"W"	"M"	"Con"
2	148	"C:\Experiments\Bartholow Lab\Hannah Volpert\stimuli\White6.jpg"	"smile"	"White"	"eyes"	"Pos"	222	527	5	"0"	103	"W"	"M"	"Con"
2	149	"C:\Experiments\Bartholow Lab\Hannah Volpert\stimuli\White13.jpg"	"paradise"	"White"	"nose"	"Pos"	232	1083	5	"0"	103	"W"	"M"	"Con"
2	150	"C:\Experiments\Bartholow Lab\Hannah Volpert\stimuli\Black3.jpg"	"vacation"	"Black"	"nose"	"Pos"	132	625	5	"0"	103	"W"	"M"	"Incon"
2	151	"C:\Experiments\Bartholow Lab\Hannah Volpert\stimuli\Black18.jpg"	"vomit"	"Black"	"forehead"	"Neg"	111	546	4	"0"	103	"W"	"M"	"Con"
2	152	"C:\Experiments\Bartholow Lab\Hannah Volpert\stimuli\White13.jpg"	"love"	"White"	"forehead"	"Pos"	212	627	5	"0"	103	"W"	"M"	"Con"
2	153	"C:\Experiments\Bartholow Lab\Hannah Volpert\stimuli\White7.jpg"	"sewage"	"White"	"nose"	"Neg"	231	612	4	"0"	103	"W"	"M"	"Incon"
2	154	"C:\Experiments\Bartholow Lab\Hannah Volpert\stimuli\Black6.jpg"	"paradise"	"Black"	"forehead"	"Pos"	112	767	5	"0"	103	"W"	"M"	"Incon"
2	155	"C:\Experiments\Bartholow Lab\Hannah Volpert\stimuli\Black5.jpg"	"disgust"	"Black"	"nose"	"Neg"	131	635	4	"0"	103	"W"	"M"	"Con"
2	156	"C:\Experiments\Bartholow Lab\Hannah Volpert\stimuli\White13.jpg"	"joy"	"White"	"eyes"	"Pos"	222	654	5	"0"	103	"W"	"M"	"Con"
2	157	"C:\Experiments\Bartholow Lab\Hannah Volpert\stimuli\Black24.jpg"	"garbage"	"Black"	"eyes"	"Neg"	121	583	4	"0"	103	"W"	"M"	"Con"
2	158	"C:\Experiments\Bartholow Lab\Hannah Volpert\stimuli\White17.jpg"	"despair"	"White"	"nose"	"Neg"	231	973	4	"0"	103	"W"	"M"	"Incon"
2	159	"C:\Experiments\Bartholow Lab\Hannah Volpert\stimuli\White5.jpg"	"smile"	"White"	"forehead"	"Pos"	212	609	5	"0"	103	"W"	"M"	"Con"
2	160	"C:\Experiments\Bartholow Lab\Hannah Volpert\stimuli\Black22.jpg"	"joy"	"Black"	"forehead"	"Pos"	112	509	5	"0"	103	"W"	"M"	"Incon"
