"Block"	"Trial"	"FaceFilename"	"WordFilename"	"FaceRace"	"Fix"	"WordValence"	"Condition"	"RT"	"Key"	"Error"	"Subno"	"Congruent"	"logRT"	"logRT.winz"	"RT.winz"	"ParRace"	"ParGender"
2	1	"C:\Hannah's FYP\Black22_neu.jpg"	"joy"	"Black"	"nose"	"Pos"	132	1343	2	0	1	"Incon"	7.20266119652324	7.20266119652324	1343	NA	NA
2	2	"C:\Hannah's FYP\White15_neu.jpg"	"sewage"	"White"	"eyes"	"Neg"	221	671	1	0	1	"Incon"	6.50876913697168	6.50876913697168	671	NA	NA
2	3	"C:\Hannah's FYP\Black16_neu.jpg"	"despair"	"Black"	"eyes"	"Neg"	121	788	1	0	1	"Con"	6.66949808985788	6.66949808985788	788	NA	NA
2	4	"C:\Hannah's FYP\Black17_neu.jpg"	"despair"	"Black"	"nose"	"Neg"	131	818	1	0	1	"Con"	6.70686233660275	6.70686233660275	818	NA	NA
2	5	"C:\Hannah's FYP\Black9_neu.jpg"	"joy"	"Black"	"eyes"	"Pos"	122	544	2	0	1	"Incon"	6.29894924685594	6.29894924685594	544	NA	NA
2	6	"C:\Hannah's FYP\White9_neu.jpg"	"disgust"	"White"	"eyes"	"Neg"	221	835	1	0	1	"Incon"	6.72743172485086	6.72743172485086	835	NA	NA
2	7	"C:\Hannah's FYP\Black14_neu.jpg"	"cockroach"	"Black"	"eyes"	"Neg"	121	832	1	0	1	"Con"	6.72383244082121	6.72383244082121	832	NA	NA
2	8	"C:\Hannah's FYP\Black2_neu.jpg"	"cockroach"	"Black"	"forehead"	"Neg"	111	639	1	0	1	"Con"	6.45990445437753	6.45990445437753	639	NA	NA
2	9	"C:\Hannah's FYP\Black10_neu.jpg"	"success"	"Black"	"eyes"	"Pos"	122	918	2	0	1	"Incon"	6.82219739062049	6.82219739062049	918	NA	NA
2	10	"C:\Hannah's FYP\White6_neu.jpg"	"disgust"	"White"	"forehead"	"Neg"	211	1848	1	0	1	"Incon"	7.52185925220163	7.52185925220163	1848	NA	NA
2	11	"C:\Hannah's FYP\White18_neu.jpg"	"pest"	"White"	"nose"	"Neg"	231	976	1	0	1	"Incon"	6.88346258641309	6.88346258641309	976	NA	NA
2	12	"C:\Hannah's FYP\White21_neu.jpg"	"vomit"	"White"	"nose"	"Neg"	231	717	1	0	1	"Incon"	6.57507584059962	6.57507584059962	717	NA	NA
2	13	"C:\Hannah's FYP\White8_neu.jpg"	"pest"	"White"	"forehead"	"Neg"	211	849	1	0	1	"Incon"	6.74405918631135	6.74405918631135	849	NA	NA
2	14	"C:\Hannah's FYP\Black5_neu.jpg"	"smile"	"Black"	"forehead"	"Pos"	112	1119	2	0	1	"Incon"	7.02019070831193	7.02019070831193	1119	NA	NA
2	15	"C:\Hannah's FYP\Black17_neu.jpg"	"pest"	"Black"	"nose"	"Neg"	131	879	1	0	1	"Con"	6.77878489768518	6.77878489768518	879	NA	NA
2	16	"C:\Hannah's FYP\Black17_neu.jpg"	"love"	"Black"	"nose"	"Pos"	132	689	2	0	1	"Incon"	6.53524127101366	6.53524127101366	689	NA	NA
2	17	"C:\Hannah's FYP\White11_neu.jpg"	"garbage"	"White"	"eyes"	"Neg"	221	789	1	0	1	"Incon"	6.67076632084587	6.67076632084587	789	NA	NA
2	18	"C:\Hannah's FYP\Black11_neu.jpg"	"romance"	"Black"	"eyes"	"Pos"	122	2014	2	0	1	"Incon"	7.60787807327851	7.60787807327851	2014	NA	NA
2	19	"C:\Hannah's FYP\Black23_neu.jpg"	"poison"	"Black"	"nose"	"Neg"	131	766	1	0	1	"Con"	6.64118216974059	6.64118216974059	766	NA	NA
2	20	"C:\Hannah's FYP\Black11_neu.jpg"	"sewage"	"Black"	"eyes"	"Neg"	121	656	1	0	1	"Con"	6.48616078894409	6.48616078894409	656	NA	NA
2	21	"C:\Hannah's FYP\Black10_neu.jpg"	"poison"	"Black"	"eyes"	"Neg"	121	1278	1	0	1	"Con"	7.15305163493748	7.15305163493748	1278	NA	NA
2	22	"C:\Hannah's FYP\White8_neu.jpg"	"success"	"White"	"forehead"	"Pos"	212	738	2	0	1	"Con"	6.60394382460047	6.60394382460047	738	NA	NA
2	23	"C:\Hannah's FYP\Black9_neu.jpg"	"cockroach"	"Black"	"eyes"	"Neg"	121	700	1	0	1	"Con"	6.5510803350434	6.5510803350434	700	NA	NA
2	24	"C:\Hannah's FYP\Black20_neu.jpg"	"poison"	"Black"	"nose"	"Neg"	131	780	1	0	1	"Con"	6.65929391968364	6.65929391968364	780	NA	NA
2	25	"C:\Hannah's FYP\Black9_neu.jpg"	"vacation"	"Black"	"eyes"	"Pos"	122	693	2	0	1	"Incon"	6.5410299991899	6.5410299991899	693	NA	NA
2	26	"C:\Hannah's FYP\White23_neu.jpg"	"vacation"	"White"	"nose"	"Pos"	232	998	2	0	1	"Con"	6.90575327631146	6.90575327631146	998	NA	NA
2	27	"C:\Hannah's FYP\White13_neu.jpg"	"vacation"	"White"	"eyes"	"Pos"	222	654	2	0	1	"Con"	6.4831073514572	6.4831073514572	654	NA	NA
2	28	"C:\Hannah's FYP\Black21_neu.jpg"	"garbage"	"Black"	"nose"	"Neg"	131	664	1	0	1	"Con"	6.49828214947643	6.49828214947643	664	NA	NA
2	29	"C:\Hannah's FYP\White24_neu.jpg"	"cockroach"	"White"	"nose"	"Neg"	231	614	1	0	1	"Incon"	6.41999492814714	6.41999492814714	614	NA	NA
2	30	"C:\Hannah's FYP\White1_neu.jpg"	"disgust"	"White"	"forehead"	"Neg"	211	790	1	0	1	"Incon"	6.67203294546107	6.67203294546107	790	NA	NA
2	31	"C:\Hannah's FYP\White5_neu.jpg"	"romance"	"White"	"forehead"	"Pos"	212	606	2	0	1	"Con"	6.40687998606931	6.40687998606931	606	NA	NA
2	32	"C:\Hannah's FYP\Black6_neu.jpg"	"disgust"	"Black"	"forehead"	"Neg"	111	1399	1	0	1	"Con"	7.24351297466548	7.24351297466548	1399	NA	NA
2	33	"C:\Hannah's FYP\White6_neu.jpg"	"love"	"White"	"forehead"	"Pos"	212	669	2	0	1	"Con"	6.50578406012823	6.50578406012823	669	NA	NA
2	34	"C:\Hannah's FYP\Black11_neu.jpg"	"disgust"	"Black"	"eyes"	"Neg"	121	1627	1	0	1	"Con"	7.39449310721904	7.39449310721904	1627	NA	NA
2	35	"C:\Hannah's FYP\White24_neu.jpg"	"garbage"	"White"	"nose"	"Neg"	231	727	1	0	1	"Incon"	6.58892647753352	6.58892647753352	727	NA	NA
2	36	"C:\Hannah's FYP\White22_neu.jpg"	"smile"	"White"	"nose"	"Pos"	232	547	2	0	1	"Con"	6.30444880242198	6.30444880242198	547	NA	NA
2	37	"C:\Hannah's FYP\White2_neu.jpg"	"smile"	"White"	"forehead"	"Pos"	212	2069	2	0	1	"Con"	7.63482067774554	7.63482067774554	2060.18353827802	NA	NA
2	38	"C:\Hannah's FYP\White18_neu.jpg"	"sewage"	"White"	"nose"	"Neg"	231	868	1	0	1	"Incon"	6.76619171466035	6.76619171466035	868	NA	NA
2	39	"C:\Hannah's FYP\Black12_neu.jpg"	"garbage"	"Black"	"eyes"	"Neg"	121	1441	1	0	1	"Con"	7.27309259599952	7.27309259599952	1441	NA	NA
2	40	"C:\Hannah's FYP\Black23_neu.jpg"	"cockroach"	"Black"	"nose"	"Neg"	131	619	1	0	1	"Con"	6.4281052726846	6.4281052726846	619	NA	NA
2	41	"C:\Hannah's FYP\Black12_neu.jpg"	"beauty"	"Black"	"eyes"	"Pos"	122	794	2	0	1	"Incon"	6.67708346124714	6.67708346124714	794	NA	NA
2	42	"C:\Hannah's FYP\Black13_neu.jpg"	"vacation"	"Black"	"eyes"	"Pos"	122	602	2	0	1	"Incon"	6.40025744530882	6.40025744530882	602	NA	NA
2	43	"C:\Hannah's FYP\White6_neu.jpg"	"despair"	"White"	"forehead"	"Neg"	211	842	1	0	1	"Incon"	6.73578001424233	6.73578001424233	842	NA	NA
2	44	"C:\Hannah's FYP\White18_neu.jpg"	"romance"	"White"	"nose"	"Pos"	232	549	2	0	1	"Con"	6.30809844150953	6.30809844150953	549	NA	NA
2	45	"C:\Hannah's FYP\Black3_neu.jpg"	"smile"	"Black"	"forehead"	"Pos"	112	646	2	0	1	"Incon"	6.4707995037826	6.4707995037826	646	NA	NA
2	46	"C:\Hannah's FYP\Black18_neu.jpg"	"vomit"	"Black"	"nose"	"Neg"	131	772	1	0	1	"Con"	6.64898455002478	6.64898455002478	772	NA	NA
2	47	"C:\Hannah's FYP\White9_neu.jpg"	"success"	"White"	"eyes"	"Pos"	222	869	2	0	1	"Con"	6.76734312526539	6.76734312526539	869	NA	NA
2	48	"C:\Hannah's FYP\Black24_neu.jpg"	"love"	"Black"	"nose"	"Pos"	132	487	2	0	1	"Incon"	6.18826412308259	6.18826412308259	487	NA	NA
2	49	"C:\Hannah's FYP\Black22_neu.jpg"	"romance"	"Black"	"nose"	"Pos"	132	569	2	0	1	"Incon"	6.34388043412633	6.34388043412633	569	NA	NA
2	50	"C:\Hannah's FYP\Black13_neu.jpg"	"paradise"	"Black"	"eyes"	"Pos"	122	507	2	0	1	"Incon"	6.22851100359118	6.22851100359118	507	NA	NA
2	51	"C:\Hannah's FYP\White13_neu.jpg"	"poison"	"White"	"eyes"	"Neg"	221	816	1	0	1	"Incon"	6.70441435496411	6.70441435496411	816	NA	NA
2	52	"C:\Hannah's FYP\Black15_neu.jpg"	"vomit"	"Black"	"eyes"	"Neg"	121	647	1	0	1	"Con"	6.4723462945009	6.4723462945009	647	NA	NA
2	53	"C:\Hannah's FYP\White10_neu.jpg"	"paradise"	"White"	"eyes"	"Pos"	222	646	2	0	1	"Con"	6.4707995037826	6.4707995037826	646	NA	NA
2	54	"C:\Hannah's FYP\Black12_neu.jpg"	"love"	"Black"	"eyes"	"Pos"	122	628	2	0	1	"Incon"	6.4425401664682	6.4425401664682	628	NA	NA
2	55	"C:\Hannah's FYP\White20_neu.jpg"	"vacation"	"White"	"nose"	"Pos"	232	720	2	0	1	"Con"	6.5792512120101	6.5792512120101	720	NA	NA
2	56	"C:\Hannah's FYP\White13_neu.jpg"	"disgust"	"White"	"eyes"	"Neg"	221	756	1	0	1	"Incon"	6.62804137617953	6.62804137617953	756	NA	NA
2	57	"C:\Hannah's FYP\White12_neu.jpg"	"smile"	"White"	"eyes"	"Pos"	222	645	2	0	1	"Con"	6.46925031679577	6.46925031679577	645	NA	NA
2	58	"C:\Hannah's FYP\White5_neu.jpg"	"paradise"	"White"	"forehead"	"Pos"	212	572	2	0	1	"Con"	6.3491389913798	6.3491389913798	572	NA	NA
2	59	"C:\Hannah's FYP\Black2_neu.jpg"	"despair"	"Black"	"forehead"	"Neg"	111	702	1	0	1	"Con"	6.55393340402581	6.55393340402581	702	NA	NA
2	60	"C:\Hannah's FYP\White2_neu.jpg"	"cockroach"	"White"	"forehead"	"Neg"	211	778	1	0	1	"Incon"	6.65672652417839	6.65672652417839	778	NA	NA
2	61	"C:\Hannah's FYP\White9_neu.jpg"	"romance"	"White"	"eyes"	"Pos"	222	635	2	0	1	"Con"	6.45362499889269	6.45362499889269	635	NA	NA
2	62	"C:\Hannah's FYP\Black15_neu.jpg"	"garbage"	"Black"	"eyes"	"Neg"	121	730	1	0	1	"Con"	6.59304453414244	6.59304453414244	730	NA	NA
2	63	"C:\Hannah's FYP\Black18_neu.jpg"	"cockroach"	"Black"	"nose"	"Neg"	131	613	1	0	1	"Con"	6.41836493593621	6.41836493593621	613	NA	NA
2	64	"C:\Hannah's FYP\White16_neu.jpg"	"pest"	"White"	"eyes"	"Neg"	221	629	1	0	1	"Incon"	6.44413125670044	6.44413125670044	629	NA	NA
2	65	"C:\Hannah's FYP\Black6_neu.jpg"	"despair"	"Black"	"forehead"	"Neg"	111	596	1	0	1	"Con"	6.39024066706535	6.39024066706535	596	NA	NA
2	66	"C:\Hannah's FYP\White4_neu.jpg"	"beauty"	"White"	"forehead"	"Pos"	212	676	2	0	1	"Con"	6.51619307604296	6.51619307604296	676	NA	NA
2	67	"C:\Hannah's FYP\White5_neu.jpg"	"garbage"	"White"	"forehead"	"Neg"	211	906	1	0	1	"Incon"	6.80903930604298	6.80903930604298	906	NA	NA
2	68	"C:\Hannah's FYP\Black7_neu.jpg"	"vomit"	"Black"	"forehead"	"Neg"	111	603	1	0	1	"Con"	6.40191719672719	6.40191719672719	603	NA	NA
2	69	"C:\Hannah's FYP\White16_neu.jpg"	"success"	"White"	"eyes"	"Pos"	222	683	2	0	1	"Con"	6.52649485957079	6.52649485957079	683	NA	NA
2	70	"C:\Hannah's FYP\White21_neu.jpg"	"sewage"	"White"	"nose"	"Neg"	231	757	1	0	1	"Incon"	6.62936325343745	6.62936325343745	757	NA	NA
2	71	"C:\Hannah's FYP\Black6_neu.jpg"	"vacation"	"Black"	"forehead"	"Pos"	112	543	2	0	1	"Incon"	6.29710931993394	6.29710931993394	543	NA	NA
2	72	"C:\Hannah's FYP\White23_neu.jpg"	"beauty"	"White"	"nose"	"Pos"	232	902	2	0	1	"Con"	6.80461452006262	6.80461452006262	902	NA	NA
2	73	"C:\Hannah's FYP\White7_neu.jpg"	"poison"	"White"	"forehead"	"Neg"	211	618	1	0	1	"Incon"	6.42648845745769	6.42648845745769	618	NA	NA
2	74	"C:\Hannah's FYP\Black2_neu.jpg"	"beauty"	"Black"	"forehead"	"Pos"	112	497	2	0	1	"Incon"	6.20859002609663	6.20859002609663	497	NA	NA
2	75	"C:\Hannah's FYP\Black10_neu.jpg"	"smile"	"Black"	"eyes"	"Pos"	122	639	2	0	1	"Incon"	6.45990445437753	6.45990445437753	639	NA	NA
2	76	"C:\Hannah's FYP\Black19_neu.jpg"	"romance"	"Black"	"nose"	"Pos"	132	582	2	0	1	"Incon"	6.36647044773144	6.36647044773144	582	NA	NA
2	77	"C:\Hannah's FYP\Black4_neu.jpg"	"sewage"	"Black"	"forehead"	"Neg"	111	888	1	0	1	"Con"	6.78897174299217	6.78897174299217	888	NA	NA
2	78	"C:\Hannah's FYP\White10_neu.jpg"	"pest"	"White"	"eyes"	"Neg"	221	868	1	0	1	"Incon"	6.76619171466035	6.76619171466035	868	NA	NA
2	79	"C:\Hannah's FYP\Black15_neu.jpg"	"joy"	"Black"	"eyes"	"Pos"	122	801	2	0	1	"Incon"	6.68586094706836	6.68586094706836	801	NA	NA
2	80	"C:\Hannah's FYP\Black18_neu.jpg"	"paradise"	"Black"	"nose"	"Pos"	132	1593	2	0	1	"Incon"	7.37337430991005	7.37337430991005	1593	NA	NA
2	81	"C:\Hannah's FYP\Black24_neu.jpg"	"sewage"	"Black"	"nose"	"Neg"	131	1004	1	0	1	"Con"	6.91174730025167	6.91174730025167	1004	NA	NA
2	82	"C:\Hannah's FYP\Black21_neu.jpg"	"paradise"	"Black"	"nose"	"Pos"	132	1375	2	0	1	"Incon"	7.22620901010067	7.22620901010067	1375	NA	NA
2	83	"C:\Hannah's FYP\Black1_neu.jpg"	"pest"	"Black"	"forehead"	"Neg"	111	799	1	0	1	"Con"	6.68336094576627	6.68336094576627	799	NA	NA
2	84	"C:\Hannah's FYP\White16_neu.jpg"	"despair"	"White"	"eyes"	"Neg"	221	1295	1	0	1	"Incon"	7.16626597413364	7.16626597413364	1295	NA	NA
2	85	"C:\Hannah's FYP\White17_neu.jpg"	"vomit"	"White"	"nose"	"Neg"	231	1858	1	0	1	"Incon"	7.52725591937378	7.52725591937378	1858	NA	NA
2	86	"C:\Hannah's FYP\Black14_neu.jpg"	"romance"	"Black"	"eyes"	"Pos"	122	861	2	0	1	"Incon"	6.75809450442773	6.75809450442773	861	NA	NA
2	87	"C:\Hannah's FYP\White11_neu.jpg"	"love"	"White"	"eyes"	"Pos"	222	698	2	0	1	"Con"	6.54821910276237	6.54821910276237	698	NA	NA
2	88	"C:\Hannah's FYP\White6_neu.jpg"	"beauty"	"White"	"forehead"	"Pos"	212	463	2	0	1	"Con"	6.13772705408623	6.13772705408623	463	NA	NA
2	89	"C:\Hannah's FYP\Black12_neu.jpg"	"vomit"	"Black"	"eyes"	"Neg"	121	998	1	0	1	"Con"	6.90575327631146	6.90575327631146	998	NA	NA
2	90	"C:\Hannah's FYP\White19_neu.jpg"	"love"	"White"	"nose"	"Pos"	232	747	2	0	1	"Con"	6.61606518513282	6.61606518513282	747	NA	NA
2	91	"C:\Hannah's FYP\White3_neu.jpg"	"success"	"White"	"forehead"	"Pos"	212	1149	2	0	1	"Con"	7.04664727784876	7.04664727784876	1149	NA	NA
2	92	"C:\Hannah's FYP\Black20_neu.jpg"	"joy"	"Black"	"nose"	"Pos"	132	610	2	0	1	"Incon"	6.41345895716736	6.41345895716736	610	NA	NA
2	93	"C:\Hannah's FYP\White12_neu.jpg"	"cockroach"	"White"	"eyes"	"Neg"	221	738	1	0	1	"Incon"	6.60394382460047	6.60394382460047	738	NA	NA
2	94	"C:\Hannah's FYP\Black14_neu.jpg"	"sewage"	"Black"	"eyes"	"Neg"	121	652	1	0	1	"Con"	6.48004456192665	6.48004456192665	652	NA	NA
2	95	"C:\Hannah's FYP\Black22_neu.jpg"	"vomit"	"Black"	"nose"	"Neg"	131	592	1	0	1	"Con"	6.38350663488401	6.38350663488401	592	NA	NA
2	96	"C:\Hannah's FYP\White12_neu.jpg"	"beauty"	"White"	"eyes"	"Pos"	222	641	2	0	1	"Con"	6.46302945692067	6.46302945692067	641	NA	NA
2	97	"C:\Hannah's FYP\White13_neu.jpg"	"paradise"	"White"	"eyes"	"Pos"	222	640	2	0	1	"Con"	6.46146817635372	6.46146817635372	640	NA	NA
2	98	"C:\Hannah's FYP\White8_neu.jpg"	"sewage"	"White"	"forehead"	"Neg"	211	1495	1	0	1	"Incon"	7.30988148582479	7.30988148582479	1495	NA	NA
2	99	"C:\Hannah's FYP\Black23_neu.jpg"	"smile"	"Black"	"nose"	"Pos"	132	502	2	0	1	"Incon"	6.21860011969173	6.21860011969173	502	NA	NA
2	100	"C:\Hannah's FYP\White4_neu.jpg"	"love"	"White"	"forehead"	"Pos"	212	1835	2	0	1	"Con"	7.51479976048867	7.51479976048867	1835	NA	NA
2	101	"C:\Hannah's FYP\White15_neu.jpg"	"romance"	"White"	"eyes"	"Pos"	222	543	2	0	1	"Con"	6.29710931993394	6.29710931993394	543	NA	NA
2	102	"C:\Hannah's FYP\Black13_neu.jpg"	"poison"	"Black"	"eyes"	"Neg"	121	546	1	0	1	"Con"	6.30261897574491	6.30261897574491	546	NA	NA
2	103	"C:\Hannah's FYP\White3_neu.jpg"	"romance"	"White"	"forehead"	"Pos"	212	733	2	0	1	"Con"	6.59714570188665	6.59714570188665	733	NA	NA
2	104	"C:\Hannah's FYP\White14_neu.jpg"	"garbage"	"White"	"eyes"	"Neg"	221	653	1	0	1	"Incon"	6.48157712927643	6.48157712927643	653	NA	NA
2	105	"C:\Hannah's FYP\Black22_neu.jpg"	"pest"	"Black"	"nose"	"Neg"	131	2152	1	0	1	"Con"	7.67415292128168	7.67415292128168	2060.18353827802	NA	NA
2	106	"C:\Hannah's FYP\White2_neu.jpg"	"sewage"	"White"	"forehead"	"Neg"	211	534	1	0	1	"Incon"	6.2803958389602	6.2803958389602	534	NA	NA
2	107	"C:\Hannah's FYP\White7_neu.jpg"	"joy"	"White"	"forehead"	"Pos"	212	754	2	0	1	"Con"	6.62539236800796	6.62539236800796	754	NA	NA
2	108	"C:\Hannah's FYP\Black24_neu.jpg"	"despair"	"Black"	"nose"	"Neg"	131	633	1	0	1	"Con"	6.45047042214418	6.45047042214418	633	NA	NA
2	109	"C:\Hannah's FYP\Black1_neu.jpg"	"romance"	"Black"	"forehead"	"Pos"	112	824	2	0	1	"Incon"	6.71417052990947	6.71417052990947	824	NA	NA
2	110	"C:\Hannah's FYP\White14_neu.jpg"	"cockroach"	"White"	"eyes"	"Neg"	221	700	1	0	1	"Incon"	6.5510803350434	6.5510803350434	700	NA	NA
2	111	"C:\Hannah's FYP\White10_neu.jpg"	"poison"	"White"	"eyes"	"Neg"	221	744	1	0	1	"Incon"	6.61204103483309	6.61204103483309	744	NA	NA
2	112	"C:\Hannah's FYP\White19_neu.jpg"	"poison"	"White"	"nose"	"Neg"	231	728	1	0	1	"Incon"	6.59030104819669	6.59030104819669	728	NA	NA
2	113	"C:\Hannah's FYP\Black8_neu.jpg"	"cockroach"	"Black"	"forehead"	"Neg"	111	745	1	0	1	"Con"	6.61338421837956	6.61338421837956	745	NA	NA
2	114	"C:\Hannah's FYP\Black23_neu.jpg"	"beauty"	"Black"	"nose"	"Pos"	132	593	2	0	1	"Incon"	6.38519439899773	6.38519439899773	593	NA	NA
2	115	"C:\Hannah's FYP\Black19_neu.jpg"	"sewage"	"Black"	"nose"	"Neg"	131	642	1	0	1	"Con"	6.46458830368996	6.46458830368996	642	NA	NA
2	116	"C:\Hannah's FYP\Black4_neu.jpg"	"vacation"	"Black"	"forehead"	"Pos"	112	873	2	0	1	"Incon"	6.7719355558396	6.7719355558396	873	NA	NA
2	117	"C:\Hannah's FYP\Black19_neu.jpg"	"beauty"	"Black"	"nose"	"Pos"	132	510	2	0	1	"Incon"	6.23441072571837	6.23441072571837	510	NA	NA
2	118	"C:\Hannah's FYP\Black7_neu.jpg"	"sewage"	"Black"	"forehead"	"Neg"	111	2232	1	0	1	"Con"	7.7106533235012	7.7106533235012	2060.18353827802	NA	NA
2	119	"C:\Hannah's FYP\White8_neu.jpg"	"smile"	"White"	"forehead"	"Pos"	212	554	2	0	1	"Con"	6.31716468674728	6.31716468674728	554	NA	NA
2	120	"C:\Hannah's FYP\White19_neu.jpg"	"smile"	"White"	"nose"	"Pos"	232	562	2	0	1	"Con"	6.33150184989369	6.33150184989369	562	NA	NA
2	121	"C:\Hannah's FYP\Black16_neu.jpg"	"smile"	"Black"	"eyes"	"Pos"	122	644	2	0	1	"Incon"	6.46769872610435	6.46769872610435	644	NA	NA
2	122	"C:\Hannah's FYP\Black20_neu.jpg"	"disgust"	"Black"	"nose"	"Neg"	131	559	1	0	1	"Con"	6.3261494731551	6.3261494731551	559	NA	NA
2	123	"C:\Hannah's FYP\White11_neu.jpg"	"sewage"	"White"	"eyes"	"Neg"	221	633	1	0	1	"Incon"	6.45047042214418	6.45047042214418	633	NA	NA
2	124	"C:\Hannah's FYP\White1_neu.jpg"	"vacation"	"White"	"forehead"	"Pos"	212	601	2	0	1	"Con"	6.39859493453521	6.39859493453521	601	NA	NA
2	125	"C:\Hannah's FYP\White2_neu.jpg"	"joy"	"White"	"forehead"	"Pos"	212	609	2	0	1	"Con"	6.4118182677099	6.4118182677099	609	NA	NA
2	126	"C:\Hannah's FYP\Black5_neu.jpg"	"poison"	"Black"	"forehead"	"Neg"	111	466	1	0	1	"Con"	6.14418563412565	6.14418563412565	466	NA	NA
2	127	"C:\Hannah's FYP\White14_neu.jpg"	"joy"	"White"	"eyes"	"Pos"	222	821	2	0	1	"Con"	6.71052310945243	6.71052310945243	821	NA	NA
2	128	"C:\Hannah's FYP\Black4_neu.jpg"	"poison"	"Black"	"forehead"	"Neg"	111	612	1	0	1	"Con"	6.41673228251233	6.41673228251233	612	NA	NA
2	129	"C:\Hannah's FYP\White11_neu.jpg"	"joy"	"White"	"eyes"	"Pos"	222	796	2	0	1	"Con"	6.67959918584438	6.67959918584438	796	NA	NA
2	130	"C:\Hannah's FYP\White20_neu.jpg"	"garbage"	"White"	"nose"	"Neg"	231	673	1	0	1	"Incon"	6.51174532964473	6.51174532964473	673	NA	NA
2	131	"C:\Hannah's FYP\Black6_neu.jpg"	"success"	"Black"	"forehead"	"Pos"	112	2543	2	0	1	"Incon"	7.84109976542212	7.76903663242356	2060.18353827802	NA	NA
2	132	"C:\Hannah's FYP\White3_neu.jpg"	"despair"	"White"	"forehead"	"Neg"	211	564	1	0	1	"Incon"	6.33505425149806	6.33505425149806	564	NA	NA
2	133	"C:\Hannah's FYP\Black15_neu.jpg"	"love"	"Black"	"eyes"	"Pos"	122	462	2	0	1	"Incon"	6.13556489108174	6.13556489108174	462	NA	NA
2	134	"C:\Hannah's FYP\White15_neu.jpg"	"beauty"	"White"	"eyes"	"Pos"	222	581	2	0	1	"Con"	6.36475075685191	6.36475075685191	581	NA	NA
2	135	"C:\Hannah's FYP\Black16_neu.jpg"	"success"	"Black"	"eyes"	"Pos"	122	2127	2	0	1	"Incon"	7.66246781520024	7.66246781520024	2060.18353827802	NA	NA
2	136	"C:\Hannah's FYP\Black5_neu.jpg"	"pest"	"Black"	"forehead"	"Neg"	111	646	1	0	1	"Con"	6.4707995037826	6.4707995037826	646	NA	NA
2	137	"C:\Hannah's FYP\White14_neu.jpg"	"love"	"White"	"eyes"	"Pos"	222	585	2	0	1	"Con"	6.37161184723186	6.37161184723186	585	NA	NA
2	138	"C:\Hannah's FYP\Black9_neu.jpg"	"despair"	"Black"	"eyes"	"Neg"	121	562	1	0	1	"Con"	6.33150184989369	6.33150184989369	562	NA	NA
2	139	"C:\Hannah's FYP\White10_neu.jpg"	"vacation"	"White"	"eyes"	"Pos"	222	605	2	0	1	"Con"	6.40522845803084	6.40522845803084	605	NA	NA
2	140	"C:\Hannah's FYP\White24_neu.jpg"	"love"	"White"	"nose"	"Pos"	232	2885	2	0	1	"Con"	7.9672801789422	7.76903663242356	2060.18353827802	NA	NA
2	141	"C:\Hannah's FYP\White5_neu.jpg"	"cockroach"	"White"	"forehead"	"Neg"	211	732	1	0	1	"Incon"	6.59578051396131	6.59578051396131	732	NA	NA
2	142	"C:\Hannah's FYP\White17_neu.jpg"	"disgust"	"White"	"nose"	"Neg"	231	519	1	0	1	"Incon"	6.25190388316589	6.25190388316589	519	NA	NA
2	143	"C:\Hannah's FYP\White20_neu.jpg"	"cockroach"	"White"	"nose"	"Neg"	231	592	1	0	1	"Incon"	6.38350663488401	6.38350663488401	592	NA	NA
2	144	"C:\Hannah's FYP\Black2_neu.jpg"	"success"	"Black"	"forehead"	"Pos"	112	521	2	0	1	"Incon"	6.25575004175337	6.25575004175337	521	NA	NA
2	145	"C:\Hannah's FYP\Black5_neu.jpg"	"love"	"Black"	"forehead"	"Pos"	112	933	1	1	1	"Incon"	6.83840520084734	6.83840520084734	933	NA	NA
2	146	"C:\Hannah's FYP\Black21_neu.jpg"	"disgust"	"Black"	"nose"	"Neg"	131	1684	1	0	1	"Con"	7.42892719480227	7.42892719480227	1684	NA	NA
2	147	"C:\Hannah's FYP\White22_neu.jpg"	"romance"	"White"	"nose"	"Pos"	232	503	2	0	1	"Con"	6.22059017009974	6.22059017009974	503	NA	NA
2	148	"C:\Hannah's FYP\White19_neu.jpg"	"despair"	"White"	"nose"	"Neg"	231	896	1	0	1	"Incon"	6.79794041297493	6.79794041297493	896	NA	NA
2	149	"C:\Hannah's FYP\Black14_neu.jpg"	"beauty"	"Black"	"eyes"	"Pos"	122	1180	2	0	1	"Incon"	7.07326971745971	7.07326971745971	1180	NA	NA
2	150	"C:\Hannah's FYP\Black20_neu.jpg"	"vacation"	"Black"	"nose"	"Pos"	132	536	2	0	1	"Incon"	6.2841341610708	6.2841341610708	536	NA	NA
2	151	"C:\Hannah's FYP\White17_neu.jpg"	"success"	"White"	"nose"	"Pos"	232	611	2	0	1	"Con"	6.4150969591716	6.4150969591716	611	NA	NA
2	152	"C:\Hannah's FYP\White23_neu.jpg"	"poison"	"White"	"nose"	"Neg"	231	592	1	0	1	"Incon"	6.38350663488401	6.38350663488401	592	NA	NA
2	153	"C:\Hannah's FYP\Black8_neu.jpg"	"beauty"	"Black"	"forehead"	"Pos"	112	607	2	0	1	"Incon"	6.4085287910595	6.4085287910595	607	NA	NA
2	154	"C:\Hannah's FYP\White7_neu.jpg"	"vacation"	"White"	"forehead"	"Pos"	212	703	2	0	1	"Con"	6.55535689181067	6.55535689181067	703	NA	NA
2	155	"C:\Hannah's FYP\Black3_neu.jpg"	"love"	"Black"	"forehead"	"Pos"	112	674	2	0	1	"Incon"	6.51323011091231	6.51323011091231	674	NA	NA
2	156	"C:\Hannah's FYP\Black21_neu.jpg"	"success"	"Black"	"nose"	"Pos"	132	644	2	0	1	"Incon"	6.46769872610435	6.46769872610435	644	NA	NA
2	157	"C:\Hannah's FYP\White22_neu.jpg"	"pest"	"White"	"nose"	"Neg"	231	907	1	0	1	"Incon"	6.81014245011514	6.81014245011514	907	NA	NA
2	158	"C:\Hannah's FYP\White20_neu.jpg"	"joy"	"White"	"nose"	"Pos"	232	1203	2	0	1	"Con"	7.09257371597468	7.09257371597468	1203	NA	NA
2	159	"C:\Hannah's FYP\Black1_neu.jpg"	"vomit"	"Black"	"forehead"	"Neg"	111	1169	1	0	1	"Con"	7.06390396147207	7.06390396147207	1169	NA	NA
2	160	"C:\Hannah's FYP\Black10_neu.jpg"	"pest"	"Black"	"eyes"	"Neg"	121	641	1	0	1	"Con"	6.46302945692067	6.46302945692067	641	NA	NA
2	161	"C:\Hannah's FYP\Black13_neu.jpg"	"disgust"	"Black"	"eyes"	"Neg"	121	960	1	0	1	"Con"	6.86693328446188	6.86693328446188	960	NA	NA
2	162	"C:\Hannah's FYP\Black4_neu.jpg"	"joy"	"Black"	"forehead"	"Pos"	112	889	2	0	1	"Incon"	6.7900972355139	6.7900972355139	889	NA	NA
2	163	"C:\Hannah's FYP\White21_neu.jpg"	"joy"	"White"	"nose"	"Pos"	232	570	2	0	1	"Con"	6.3456363608286	6.3456363608286	570	NA	NA
2	164	"C:\Hannah's FYP\Black16_neu.jpg"	"pest"	"Black"	"eyes"	"Neg"	121	644	1	0	1	"Con"	6.46769872610435	6.46769872610435	644	NA	NA
2	165	"C:\Hannah's FYP\White23_neu.jpg"	"despair"	"White"	"nose"	"Neg"	231	862	1	0	1	"Incon"	6.75925527066369	6.75925527066369	862	NA	NA
2	166	"C:\Hannah's FYP\White1_neu.jpg"	"pest"	"White"	"forehead"	"Neg"	211	652	1	0	1	"Incon"	6.48004456192665	6.48004456192665	652	NA	NA
2	167	"C:\Hannah's FYP\Black19_neu.jpg"	"garbage"	"Black"	"nose"	"Neg"	131	1746	1	0	1	"Con"	7.46508273639955	7.46508273639955	1746	NA	NA
2	168	"C:\Hannah's FYP\Black8_neu.jpg"	"romance"	"Black"	"forehead"	"Pos"	112	1463	2	0	1	"Incon"	7.28824440102012	7.28824440102012	1463	NA	NA
2	169	"C:\Hannah's FYP\White12_neu.jpg"	"vomit"	"White"	"eyes"	"Neg"	221	723	1	0	1	"Incon"	6.58340922215876	6.58340922215876	723	NA	NA
2	170	"C:\Hannah's FYP\White16_neu.jpg"	"smile"	"White"	"eyes"	"Pos"	222	502	2	0	1	"Con"	6.21860011969173	6.21860011969173	502	NA	NA
2	171	"C:\Hannah's FYP\Black18_neu.jpg"	"success"	"Black"	"nose"	"Pos"	132	867	2	0	1	"Incon"	6.76503897678054	6.76503897678054	867	NA	NA
2	172	"C:\Hannah's FYP\White24_neu.jpg"	"paradise"	"White"	"nose"	"Pos"	232	1384	2	0	1	"Con"	7.23273313617761	7.23273313617761	1384	NA	NA
2	173	"C:\Hannah's FYP\White1_neu.jpg"	"paradise"	"White"	"forehead"	"Pos"	212	480	2	0	1	"Con"	6.17378610390194	6.17378610390194	480	NA	NA
2	174	"C:\Hannah's FYP\White4_neu.jpg"	"poison"	"White"	"forehead"	"Neg"	211	734	1	0	1	"Incon"	6.59850902861452	6.59850902861452	734	NA	NA
2	175	"C:\Hannah's FYP\Black17_neu.jpg"	"smile"	"Black"	"nose"	"Pos"	132	575	2	0	1	"Incon"	6.35437004079735	6.35437004079735	575	NA	NA
2	176	"C:\Hannah's FYP\Black3_neu.jpg"	"disgust"	"Black"	"forehead"	"Neg"	111	904	1	0	1	"Con"	6.80682936039218	6.80682936039218	904	NA	NA
2	177	"C:\Hannah's FYP\Black24_neu.jpg"	"vacation"	"Black"	"nose"	"Pos"	132	1137	2	0	1	"Incon"	7.03614849375054	7.03614849375054	1137	NA	NA
2	178	"C:\Hannah's FYP\White17_neu.jpg"	"beauty"	"White"	"nose"	"Pos"	232	498	2	0	1	"Con"	6.21060007702465	6.21060007702465	498	NA	NA
2	179	"C:\Hannah's FYP\Black11_neu.jpg"	"paradise"	"Black"	"eyes"	"Pos"	122	727	2	0	1	"Incon"	6.58892647753352	6.58892647753352	727	NA	NA
2	180	"C:\Hannah's FYP\White18_neu.jpg"	"paradise"	"White"	"nose"	"Pos"	232	503	2	0	1	"Con"	6.22059017009974	6.22059017009974	503	NA	NA
2	181	"C:\Hannah's FYP\White9_neu.jpg"	"despair"	"White"	"eyes"	"Neg"	221	1156	1	0	1	"Incon"	7.05272104923232	7.05272104923232	1156	NA	NA
2	182	"C:\Hannah's FYP\White3_neu.jpg"	"garbage"	"White"	"forehead"	"Neg"	211	908	1	0	1	"Incon"	6.81124437860129	6.81124437860129	908	NA	NA
2	183	"C:\Hannah's FYP\White15_neu.jpg"	"vomit"	"White"	"eyes"	"Neg"	221	776	1	0	1	"Incon"	6.65415252018322	6.65415252018322	776	NA	NA
2	184	"C:\Hannah's FYP\Black7_neu.jpg"	"joy"	"Black"	"forehead"	"Pos"	112	1023	2	0	1	"Incon"	6.93049476595163	6.93049476595163	1023	NA	NA
2	185	"C:\Hannah's FYP\Black1_neu.jpg"	"paradise"	"Black"	"forehead"	"Pos"	112	1205	2	0	1	"Incon"	7.09423484592476	7.09423484592476	1205	NA	NA
2	186	"C:\Hannah's FYP\White7_neu.jpg"	"vomit"	"White"	"forehead"	"Neg"	211	620	1	0	1	"Incon"	6.42971947803914	6.42971947803914	620	NA	NA
2	187	"C:\Hannah's FYP\Black8_neu.jpg"	"garbage"	"Black"	"forehead"	"Neg"	111	1465	1	0	1	"Con"	7.28961052145117	7.28961052145117	1465	NA	NA
2	188	"C:\Hannah's FYP\Black3_neu.jpg"	"garbage"	"Black"	"forehead"	"Neg"	111	548	1	0	1	"Con"	6.30627528694802	6.30627528694802	548	NA	NA
2	189	"C:\Hannah's FYP\Black7_neu.jpg"	"paradise"	"Black"	"forehead"	"Pos"	112	861	2	0	1	"Incon"	6.75809450442773	6.75809450442773	861	NA	NA
2	190	"C:\Hannah's FYP\White21_neu.jpg"	"success"	"White"	"nose"	"Pos"	232	823	2	0	1	"Con"	6.71295620067707	6.71295620067707	823	NA	NA
2	191	"C:\Hannah's FYP\White4_neu.jpg"	"vomit"	"White"	"forehead"	"Neg"	211	565	1	0	1	"Incon"	6.33682573114644	6.33682573114644	565	NA	NA
2	192	"C:\Hannah's FYP\White22_neu.jpg"	"disgust"	"White"	"nose"	"Neg"	231	904	1	0	1	"Incon"	6.80682936039218	6.80682936039218	904	NA	NA
2	1	"C:\Hannah's FYP\Black13_neu.jpg"	"poison"	"Black"	"eyes"	"Neg"	121	4232	1	0	2	"Con"	8.35042997353814	7.81992759058544	1956.15037153411	NA	NA
2	2	"C:\Hannah's FYP\Black2_neu.jpg"	"romance"	"Black"	"forehead"	"Pos"	112	3741	2	0	2	"Incon"	8.22710823434815	7.81992759058544	1956.15037153411	NA	NA
2	3	"C:\Hannah's FYP\White5_neu.jpg"	"love"	"White"	"forehead"	"Pos"	212	2367	2	0	2	"Con"	7.76937860951398	7.76937860951398	1956.15037153411	NA	NA
2	4	"C:\Hannah's FYP\White9_neu.jpg"	"vacation"	"White"	"eyes"	"Pos"	222	1004	2	0	2	"Con"	6.91174730025167	6.91174730025167	1004	NA	NA
2	5	"C:\Hannah's FYP\Black16_neu.jpg"	"vomit"	"Black"	"eyes"	"Neg"	121	1059	1	0	2	"Con"	6.96508034560141	6.96508034560141	1059	NA	NA
2	6	"C:\Hannah's FYP\White15_neu.jpg"	"joy"	"White"	"eyes"	"Pos"	222	3071	2	0	2	"Con"	8.02975852044082	7.81992759058544	1956.15037153411	NA	NA
2	7	"C:\Hannah's FYP\Black4_neu.jpg"	"beauty"	"Black"	"forehead"	"Pos"	112	582	2	0	2	"Incon"	6.36647044773144	6.36647044773144	582	NA	NA
2	8	"C:\Hannah's FYP\White16_neu.jpg"	"vomit"	"White"	"eyes"	"Neg"	221	743	1	0	2	"Incon"	6.61069604471776	6.61069604471776	743	NA	NA
2	9	"C:\Hannah's FYP\Black19_neu.jpg"	"joy"	"Black"	"nose"	"Pos"	132	586	2	0	2	"Incon"	6.37331978957701	6.37331978957701	586	NA	NA
2	10	"C:\Hannah's FYP\White13_neu.jpg"	"beauty"	"White"	"eyes"	"Pos"	222	474	1	1	2	"Con"	6.16120732169508	6.16120732169508	474	NA	NA
2	11	"C:\Hannah's FYP\White3_neu.jpg"	"poison"	"White"	"forehead"	"Neg"	211	375	2	1	2	"Incon"	5.92692602597041	5.92692602597041	375	NA	NA
2	12	"C:\Hannah's FYP\White21_neu.jpg"	"love"	"White"	"nose"	"Pos"	232	1485	2	0	2	"Con"	7.3031700512368	7.3031700512368	1485	NA	NA
2	13	"C:\Hannah's FYP\Black19_neu.jpg"	"cockroach"	"Black"	"nose"	"Neg"	131	888	1	0	2	"Con"	6.78897174299217	6.78897174299217	888	NA	NA
2	14	"C:\Hannah's FYP\Black15_neu.jpg"	"vacation"	"Black"	"eyes"	"Pos"	122	813	2	0	2	"Incon"	6.70073110954781	6.70073110954781	813	NA	NA
2	15	"C:\Hannah's FYP\White3_neu.jpg"	"success"	"White"	"forehead"	"Pos"	212	764	2	0	2	"Con"	6.63856778916652	6.63856778916652	764	NA	NA
2	16	"C:\Hannah's FYP\Black8_neu.jpg"	"beauty"	"Black"	"forehead"	"Pos"	112	628	2	0	2	"Incon"	6.4425401664682	6.4425401664682	628	NA	NA
2	17	"C:\Hannah's FYP\Black24_neu.jpg"	"cockroach"	"Black"	"nose"	"Neg"	131	497	1	0	2	"Con"	6.20859002609663	6.20859002609663	497	NA	NA
2	18	"C:\Hannah's FYP\Black12_neu.jpg"	"garbage"	"Black"	"eyes"	"Neg"	121	462	1	0	2	"Con"	6.13556489108174	6.13556489108174	462	NA	NA
2	19	"C:\Hannah's FYP\Black22_neu.jpg"	"garbage"	"Black"	"nose"	"Neg"	131	242	1	0	2	"Con"	5.48893772615669	5.48893772615669	242	NA	NA
2	20	"C:\Hannah's FYP\Black4_neu.jpg"	"vacation"	"Black"	"forehead"	"Pos"	112	530	2	0	2	"Incon"	6.27287700654617	6.27287700654617	530	NA	NA
2	21	"C:\Hannah's FYP\Black8_neu.jpg"	"smile"	"Black"	"forehead"	"Pos"	112	468	2	0	2	"Incon"	6.14846829591765	6.14846829591765	468	NA	NA
2	22	"C:\Hannah's FYP\Black6_neu.jpg"	"vacation"	"Black"	"forehead"	"Pos"	112	530	1	1	2	"Incon"	6.27287700654617	6.27287700654617	530	NA	NA
2	23	"C:\Hannah's FYP\White3_neu.jpg"	"paradise"	"White"	"forehead"	"Pos"	212	294	2	0	2	"Con"	5.68357976733868	5.68357976733868	294	NA	NA
2	24	"C:\Hannah's FYP\Black3_neu.jpg"	"love"	"Black"	"forehead"	"Pos"	112	426	2	0	2	"Incon"	6.05443934626937	6.05443934626937	426	NA	NA
2	25	"C:\Hannah's FYP\White16_neu.jpg"	"romance"	"White"	"eyes"	"Pos"	222	530	2	0	2	"Con"	6.27287700654617	6.27287700654617	530	NA	NA
2	26	"C:\Hannah's FYP\Black9_neu.jpg"	"despair"	"Black"	"eyes"	"Neg"	121	197	2	1	2	"Con"	5.28320372873799	5.28320372873799	197	NA	NA
2	27	"C:\Hannah's FYP\White14_neu.jpg"	"vacation"	"White"	"eyes"	"Pos"	222	316	1	1	2	"Con"	5.75574221358691	5.75574221358691	316	NA	NA
2	28	"C:\Hannah's FYP\Black21_neu.jpg"	"romance"	"Black"	"nose"	"Pos"	132	397	2	0	2	"Incon"	5.98393628068719	5.98393628068719	397	NA	NA
2	29	"C:\Hannah's FYP\Black19_neu.jpg"	"pest"	"Black"	"nose"	"Neg"	131	454	2	1	2	"Con"	6.11809719804135	6.11809719804135	454	NA	NA
2	30	"C:\Hannah's FYP\Black21_neu.jpg"	"sewage"	"Black"	"nose"	"Neg"	131	970	1	0	2	"Con"	6.87729607149743	6.87729607149743	970	NA	NA
2	31	"C:\Hannah's FYP\White5_neu.jpg"	"beauty"	"White"	"forehead"	"Pos"	212	483	2	0	2	"Con"	6.18001665365257	6.18001665365257	483	NA	NA
2	32	"C:\Hannah's FYP\Black18_neu.jpg"	"vomit"	"Black"	"nose"	"Neg"	131	760	1	0	2	"Con"	6.63331843328038	6.63331843328038	760	NA	NA
2	33	"C:\Hannah's FYP\Black17_neu.jpg"	"disgust"	"Black"	"nose"	"Neg"	131	608	1	0	2	"Con"	6.41017488196617	6.41017488196617	608	NA	NA
2	34	"C:\Hannah's FYP\Black18_neu.jpg"	"garbage"	"Black"	"nose"	"Neg"	131	664	1	0	2	"Con"	6.49828214947643	6.49828214947643	664	NA	NA
2	35	"C:\Hannah's FYP\White11_neu.jpg"	"vomit"	"White"	"eyes"	"Neg"	221	325	2	1	2	"Incon"	5.78382518232974	5.78382518232974	325	NA	NA
2	36	"C:\Hannah's FYP\White14_neu.jpg"	"pest"	"White"	"eyes"	"Neg"	221	566	1	0	2	"Incon"	6.33859407820318	6.33859407820318	566	NA	NA
2	37	"C:\Hannah's FYP\White7_neu.jpg"	"joy"	"White"	"forehead"	"Pos"	212	560	2	0	2	"Con"	6.32793678372919	6.32793678372919	560	NA	NA
2	38	"C:\Hannah's FYP\Black6_neu.jpg"	"vomit"	"Black"	"forehead"	"Neg"	111	467	1	0	2	"Con"	6.1463292576689	6.1463292576689	467	NA	NA
2	39	"C:\Hannah's FYP\White14_neu.jpg"	"despair"	"White"	"eyes"	"Neg"	221	406	1	0	2	"Incon"	6.00635315960173	6.00635315960173	406	NA	NA
2	40	"C:\Hannah's FYP\White8_neu.jpg"	"romance"	"White"	"forehead"	"Pos"	212	63	2	0	2	"Con"	4.14313472639153	4.14313472639153	63	NA	NA
2	41	"C:\Hannah's FYP\White7_neu.jpg"	"despair"	"White"	"forehead"	"Neg"	211	167	1	0	2	"Incon"	5.11799381241676	5.11799381241676	167	NA	NA
2	42	"C:\Hannah's FYP\Black8_neu.jpg"	"cockroach"	"Black"	"forehead"	"Neg"	111	328	2	1	2	"Con"	5.79301360838414	5.79301360838414	328	NA	NA
2	43	"C:\Hannah's FYP\White16_neu.jpg"	"garbage"	"White"	"eyes"	"Neg"	221	500	1	0	2	"Incon"	6.21460809842219	6.21460809842219	500	NA	NA
2	44	"C:\Hannah's FYP\White18_neu.jpg"	"pest"	"White"	"nose"	"Neg"	231	461	1	0	2	"Incon"	6.13339804299665	6.13339804299665	461	NA	NA
2	45	"C:\Hannah's FYP\Black21_neu.jpg"	"smile"	"Black"	"nose"	"Pos"	132	264	1	1	2	"Incon"	5.57594910314632	5.57594910314632	264	NA	NA
2	46	"C:\Hannah's FYP\White2_neu.jpg"	"despair"	"White"	"forehead"	"Neg"	211	544	1	0	2	"Incon"	6.29894924685594	6.29894924685594	544	NA	NA
2	47	"C:\Hannah's FYP\White12_neu.jpg"	"success"	"White"	"eyes"	"Pos"	222	593	2	0	2	"Con"	6.38519439899773	6.38519439899773	593	NA	NA
2	48	"C:\Hannah's FYP\Black10_neu.jpg"	"vomit"	"Black"	"eyes"	"Neg"	121	306	1	0	2	"Con"	5.72358510195238	5.72358510195238	306	NA	NA
2	49	"C:\Hannah's FYP\Black20_neu.jpg"	"despair"	"Black"	"nose"	"Neg"	131	171	1	0	2	"Con"	5.14166355650266	5.14166355650266	171	NA	NA
2	50	"C:\Hannah's FYP\Black20_neu.jpg"	"love"	"Black"	"nose"	"Pos"	132	153	1	1	2	"Incon"	5.03043792139244	5.03043792139244	153	NA	NA
2	51	"C:\Hannah's FYP\Black24_neu.jpg"	"despair"	"Black"	"nose"	"Neg"	131	170	1	0	2	"Con"	5.13579843705026	5.13579843705026	170	NA	NA
2	52	"C:\Hannah's FYP\Black11_neu.jpg"	"cockroach"	"Black"	"eyes"	"Neg"	121	557	1	0	2	"Con"	6.32256523992728	6.32256523992728	557	NA	NA
2	53	"C:\Hannah's FYP\Black23_neu.jpg"	"love"	"Black"	"nose"	"Pos"	132	213	1	1	2	"Incon"	5.36129216570943	5.36129216570943	213	NA	NA
2	54	"C:\Hannah's FYP\White4_neu.jpg"	"beauty"	"White"	"forehead"	"Pos"	212	214	2	0	2	"Con"	5.36597601502185	5.36597601502185	214	NA	NA
2	55	"C:\Hannah's FYP\Black12_neu.jpg"	"poison"	"Black"	"eyes"	"Neg"	121	560	1	0	2	"Con"	6.32793678372919	6.32793678372919	560	NA	NA
2	56	"C:\Hannah's FYP\Black17_neu.jpg"	"beauty"	"Black"	"nose"	"Pos"	132	360	1	1	2	"Incon"	5.88610403145016	5.88610403145016	360	NA	NA
2	57	"C:\Hannah's FYP\White23_neu.jpg"	"beauty"	"White"	"nose"	"Pos"	232	527	2	0	2	"Con"	6.26720054854136	6.26720054854136	527	NA	NA
2	58	"C:\Hannah's FYP\White10_neu.jpg"	"joy"	"White"	"eyes"	"Pos"	222	611	2	0	2	"Con"	6.4150969591716	6.4150969591716	611	NA	NA
2	59	"C:\Hannah's FYP\Black11_neu.jpg"	"romance"	"Black"	"eyes"	"Pos"	122	403	2	0	2	"Incon"	5.99893656194668	5.99893656194668	403	NA	NA
2	60	"C:\Hannah's FYP\White24_neu.jpg"	"poison"	"White"	"nose"	"Neg"	231	364	1	0	2	"Incon"	5.89715386763674	5.89715386763674	364	NA	NA
2	61	"C:\Hannah's FYP\White2_neu.jpg"	"love"	"White"	"forehead"	"Pos"	212	327	1	1	2	"Con"	5.78996017089725	5.78996017089725	327	NA	NA
2	62	"C:\Hannah's FYP\White8_neu.jpg"	"poison"	"White"	"forehead"	"Neg"	211	148	2	1	2	"Incon"	4.99721227376411	4.99721227376411	148	NA	NA
2	63	"C:\Hannah's FYP\Black23_neu.jpg"	"pest"	"Black"	"nose"	"Neg"	131	317	1	0	2	"Con"	5.75890177387728	5.75890177387728	317	NA	NA
2	64	"C:\Hannah's FYP\Black14_neu.jpg"	"pest"	"Black"	"eyes"	"Neg"	121	554	1	0	2	"Con"	6.31716468674728	6.31716468674728	554	NA	NA
2	65	"C:\Hannah's FYP\White23_neu.jpg"	"disgust"	"White"	"nose"	"Neg"	231	593	1	0	2	"Incon"	6.38519439899773	6.38519439899773	593	NA	NA
2	66	"C:\Hannah's FYP\White6_neu.jpg"	"garbage"	"White"	"forehead"	"Neg"	211	649	1	0	2	"Incon"	6.47543271670409	6.47543271670409	649	NA	NA
2	67	"C:\Hannah's FYP\White16_neu.jpg"	"paradise"	"White"	"eyes"	"Pos"	222	616	2	0	2	"Con"	6.42324696353352	6.42324696353352	616	NA	NA
2	68	"C:\Hannah's FYP\White18_neu.jpg"	"paradise"	"White"	"nose"	"Pos"	232	605	2	0	2	"Con"	6.40522845803084	6.40522845803084	605	NA	NA
2	69	"C:\Hannah's FYP\Black13_neu.jpg"	"smile"	"Black"	"eyes"	"Pos"	122	309	1	1	2	"Incon"	5.73334127689775	5.73334127689775	309	NA	NA
2	70	"C:\Hannah's FYP\Black5_neu.jpg"	"pest"	"Black"	"forehead"	"Neg"	111	298	2	1	2	"Con"	5.6970934865054	5.6970934865054	298	NA	NA
2	71	"C:\Hannah's FYP\White13_neu.jpg"	"sewage"	"White"	"eyes"	"Neg"	221	1032	1	0	2	"Incon"	6.93925394604151	6.93925394604151	1032	NA	NA
2	72	"C:\Hannah's FYP\Black20_neu.jpg"	"success"	"Black"	"nose"	"Pos"	132	226	1	1	2	"Incon"	5.42053499927229	5.42053499927229	226	NA	NA
2	73	"C:\Hannah's FYP\White7_neu.jpg"	"vacation"	"White"	"forehead"	"Pos"	212	723	2	0	2	"Con"	6.58340922215876	6.58340922215876	723	NA	NA
2	74	"C:\Hannah's FYP\Black11_neu.jpg"	"sewage"	"Black"	"eyes"	"Neg"	121	406	2	1	2	"Con"	6.00635315960173	6.00635315960173	406	NA	NA
2	75	"C:\Hannah's FYP\White18_neu.jpg"	"garbage"	"White"	"nose"	"Neg"	231	244	1	0	2	"Incon"	5.4971682252932	5.4971682252932	244	NA	NA
2	76	"C:\Hannah's FYP\Black4_neu.jpg"	"poison"	"Black"	"forehead"	"Neg"	111	220	2	1	2	"Con"	5.39362754635236	5.39362754635236	220	NA	NA
2	77	"C:\Hannah's FYP\Black3_neu.jpg"	"disgust"	"Black"	"forehead"	"Neg"	111	859	1	0	2	"Con"	6.75576892198425	6.75576892198425	859	NA	NA
2	78	"C:\Hannah's FYP\Black16_neu.jpg"	"love"	"Black"	"eyes"	"Pos"	122	338	1	1	2	"Incon"	5.82304589548302	5.82304589548302	338	NA	NA
2	79	"C:\Hannah's FYP\White21_neu.jpg"	"success"	"White"	"nose"	"Pos"	232	234	1	1	2	"Con"	5.4553211153577	5.4553211153577	234	NA	NA
2	80	"C:\Hannah's FYP\White20_neu.jpg"	"beauty"	"White"	"nose"	"Pos"	232	494	2	0	2	"Con"	6.20253551718792	6.20253551718792	494	NA	NA
2	81	"C:\Hannah's FYP\White24_neu.jpg"	"romance"	"White"	"nose"	"Pos"	232	755	2	0	2	"Con"	6.62671774924902	6.62671774924902	755	NA	NA
2	82	"C:\Hannah's FYP\White12_neu.jpg"	"garbage"	"White"	"eyes"	"Neg"	221	565	1	0	2	"Incon"	6.33682573114644	6.33682573114644	565	NA	NA
2	83	"C:\Hannah's FYP\White4_neu.jpg"	"garbage"	"White"	"forehead"	"Neg"	211	127	2	1	2	"Incon"	4.84418708645859	4.84418708645859	127	NA	NA
2	84	"C:\Hannah's FYP\Black24_neu.jpg"	"vacation"	"Black"	"nose"	"Pos"	132	210	1	1	2	"Incon"	5.34710753071747	5.34710753071747	210	NA	NA
2	85	"C:\Hannah's FYP\White10_neu.jpg"	"romance"	"White"	"eyes"	"Pos"	222	251	2	0	2	"Con"	5.52545293913178	5.52545293913178	251	NA	NA
2	86	"C:\Hannah's FYP\White22_neu.jpg"	"sewage"	"White"	"nose"	"Neg"	231	66	2	1	2	"Incon"	4.18965474202643	4.18965474202643	66	NA	NA
2	87	"C:\Hannah's FYP\White5_neu.jpg"	"vomit"	"White"	"forehead"	"Neg"	211	290	2	1	2	"Incon"	5.66988092298052	5.66988092298052	290	NA	NA
2	88	"C:\Hannah's FYP\White11_neu.jpg"	"love"	"White"	"eyes"	"Pos"	222	584	2	0	2	"Con"	6.36990098282823	6.36990098282823	584	NA	NA
2	89	"C:\Hannah's FYP\Black3_neu.jpg"	"smile"	"Black"	"forehead"	"Pos"	112	327	1	1	2	"Incon"	5.78996017089725	5.78996017089725	327	NA	NA
2	90	"C:\Hannah's FYP\Black5_neu.jpg"	"romance"	"Black"	"forehead"	"Pos"	112	508	2	0	2	"Incon"	6.23048144757848	6.23048144757848	508	NA	NA
2	91	"C:\Hannah's FYP\White11_neu.jpg"	"paradise"	"White"	"eyes"	"Pos"	222	408	2	0	2	"Con"	6.01126717440416	6.01126717440416	408	NA	NA
2	92	"C:\Hannah's FYP\Black14_neu.jpg"	"beauty"	"Black"	"eyes"	"Pos"	122	369	2	0	2	"Incon"	5.91079664404053	5.91079664404053	369	NA	NA
2	93	"C:\Hannah's FYP\Black9_neu.jpg"	"love"	"Black"	"eyes"	"Pos"	122	220	2	0	2	"Incon"	5.39362754635236	5.39362754635236	220	NA	NA
2	94	"C:\Hannah's FYP\White2_neu.jpg"	"pest"	"White"	"forehead"	"Neg"	211	245	2	1	2	"Incon"	5.50125821054473	5.50125821054473	245	NA	NA
2	95	"C:\Hannah's FYP\Black5_neu.jpg"	"poison"	"Black"	"forehead"	"Neg"	111	389	2	1	2	"Con"	5.96357934361845	5.96357934361845	389	NA	NA
2	96	"C:\Hannah's FYP\White4_neu.jpg"	"disgust"	"White"	"forehead"	"Neg"	211	222	2	1	2	"Incon"	5.40267738187228	5.40267738187228	222	NA	NA
2	98	"C:\Hannah's FYP\Black7_neu.jpg"	"sewage"	"Black"	"forehead"	"Neg"	111	438	1	0	2	"Con"	6.08221891037645	6.08221891037645	438	NA	NA
2	99	"C:\Hannah's FYP\White3_neu.jpg"	"cockroach"	"White"	"forehead"	"Neg"	211	302	2	1	2	"Incon"	5.71042701737487	5.71042701737487	302	NA	NA
2	100	"C:\Hannah's FYP\White15_neu.jpg"	"disgust"	"White"	"eyes"	"Neg"	221	523	1	0	2	"Incon"	6.25958146406492	6.25958146406492	523	NA	NA
2	101	"C:\Hannah's FYP\Black23_neu.jpg"	"beauty"	"Black"	"nose"	"Pos"	132	460	1	1	2	"Incon"	6.13122648948314	6.13122648948314	460	NA	NA
2	102	"C:\Hannah's FYP\Black10_neu.jpg"	"disgust"	"Black"	"eyes"	"Neg"	121	331	2	1	2	"Con"	5.80211837537706	5.80211837537706	331	NA	NA
2	103	"C:\Hannah's FYP\White17_neu.jpg"	"vacation"	"White"	"nose"	"Pos"	232	439	1	1	2	"Con"	6.08449941307517	6.08449941307517	439	NA	NA
2	104	"C:\Hannah's FYP\Black1_neu.jpg"	"cockroach"	"Black"	"forehead"	"Neg"	111	567	1	0	2	"Con"	6.34035930372775	6.34035930372775	567	NA	NA
2	105	"C:\Hannah's FYP\Black15_neu.jpg"	"romance"	"Black"	"eyes"	"Pos"	122	553	1	1	2	"Incon"	6.31535800152233	6.31535800152233	553	NA	NA
2	106	"C:\Hannah's FYP\White21_neu.jpg"	"vomit"	"White"	"nose"	"Neg"	231	584	1	0	2	"Incon"	6.36990098282823	6.36990098282823	584	NA	NA
2	107	"C:\Hannah's FYP\White9_neu.jpg"	"beauty"	"White"	"eyes"	"Pos"	222	769	2	0	2	"Con"	6.64509096950564	6.64509096950564	769	NA	NA
2	108	"C:\Hannah's FYP\Black15_neu.jpg"	"despair"	"Black"	"eyes"	"Neg"	121	458	1	0	2	"Con"	6.12686918411419	6.12686918411419	458	NA	NA
2	109	"C:\Hannah's FYP\White24_neu.jpg"	"pest"	"White"	"nose"	"Neg"	231	360	1	0	2	"Incon"	5.88610403145016	5.88610403145016	360	NA	NA
2	110	"C:\Hannah's FYP\Black9_neu.jpg"	"smile"	"Black"	"eyes"	"Pos"	122	396	2	0	2	"Incon"	5.98141421125448	5.98141421125448	396	NA	NA
2	111	"C:\Hannah's FYP\White8_neu.jpg"	"success"	"White"	"forehead"	"Pos"	212	373	2	0	2	"Con"	5.92157841964382	5.92157841964382	373	NA	NA
2	112	"C:\Hannah's FYP\White2_neu.jpg"	"vacation"	"White"	"forehead"	"Pos"	212	616	2	0	2	"Con"	6.42324696353352	6.42324696353352	616	NA	NA
2	113	"C:\Hannah's FYP\White19_neu.jpg"	"despair"	"White"	"nose"	"Neg"	231	564	1	0	2	"Incon"	6.33505425149806	6.33505425149806	564	NA	NA
2	114	"C:\Hannah's FYP\White22_neu.jpg"	"smile"	"White"	"nose"	"Pos"	232	383	2	0	2	"Con"	5.94803498918065	5.94803498918065	383	NA	NA
2	115	"C:\Hannah's FYP\White13_neu.jpg"	"smile"	"White"	"eyes"	"Pos"	222	569	2	0	2	"Con"	6.34388043412633	6.34388043412633	569	NA	NA
2	116	"C:\Hannah's FYP\White10_neu.jpg"	"pest"	"White"	"eyes"	"Neg"	221	594	1	0	2	"Incon"	6.38687931936265	6.38687931936265	594	NA	NA
2	117	"C:\Hannah's FYP\White19_neu.jpg"	"disgust"	"White"	"nose"	"Neg"	231	472	1	0	2	"Incon"	6.15697898558556	6.15697898558556	472	NA	NA
2	118	"C:\Hannah's FYP\Black16_neu.jpg"	"disgust"	"Black"	"eyes"	"Neg"	121	263	1	0	2	"Con"	5.57215403217776	5.57215403217776	263	NA	NA
2	119	"C:\Hannah's FYP\White23_neu.jpg"	"despair"	"White"	"nose"	"Neg"	231	378	1	0	2	"Incon"	5.93489419561959	5.93489419561959	378	NA	NA
2	120	"C:\Hannah's FYP\Black16_neu.jpg"	"success"	"Black"	"eyes"	"Pos"	122	157	1	1	2	"Incon"	5.05624580534831	5.05624580534831	157	NA	NA
2	121	"C:\Hannah's FYP\Black12_neu.jpg"	"beauty"	"Black"	"eyes"	"Pos"	122	744	2	0	2	"Incon"	6.61204103483309	6.61204103483309	744	NA	NA
2	122	"C:\Hannah's FYP\Black6_neu.jpg"	"despair"	"Black"	"forehead"	"Neg"	111	235	1	0	2	"Con"	5.45958551414416	5.45958551414416	235	NA	NA
2	123	"C:\Hannah's FYP\White10_neu.jpg"	"sewage"	"White"	"eyes"	"Neg"	221	427	1	0	2	"Incon"	6.05678401322862	6.05678401322862	427	NA	NA
2	124	"C:\Hannah's FYP\White15_neu.jpg"	"poison"	"White"	"eyes"	"Neg"	221	884	1	0	2	"Incon"	6.78445706263764	6.78445706263764	884	NA	NA
2	125	"C:\Hannah's FYP\Black22_neu.jpg"	"success"	"Black"	"nose"	"Pos"	132	582	2	0	2	"Incon"	6.36647044773144	6.36647044773144	582	NA	NA
2	126	"C:\Hannah's FYP\Black13_neu.jpg"	"sewage"	"Black"	"eyes"	"Neg"	121	456	1	0	2	"Con"	6.12249280951439	6.12249280951439	456	NA	NA
2	127	"C:\Hannah's FYP\White1_neu.jpg"	"sewage"	"White"	"forehead"	"Neg"	211	222	2	1	2	"Incon"	5.40267738187228	5.40267738187228	222	NA	NA
2	128	"C:\Hannah's FYP\White17_neu.jpg"	"sewage"	"White"	"nose"	"Neg"	231	279	1	0	2	"Incon"	5.63121178182137	5.63121178182137	279	NA	NA
2	129	"C:\Hannah's FYP\White5_neu.jpg"	"disgust"	"White"	"forehead"	"Neg"	211	742	1	0	2	"Incon"	6.60934924316738	6.60934924316738	742	NA	NA
2	130	"C:\Hannah's FYP\White20_neu.jpg"	"cockroach"	"White"	"nose"	"Neg"	231	325	1	0	2	"Incon"	5.78382518232974	5.78382518232974	325	NA	NA
2	131	"C:\Hannah's FYP\Black10_neu.jpg"	"joy"	"Black"	"eyes"	"Pos"	122	249	1	1	2	"Incon"	5.51745289646471	5.51745289646471	249	NA	NA
2	132	"C:\Hannah's FYP\Black21_neu.jpg"	"poison"	"Black"	"nose"	"Neg"	131	222	1	0	2	"Con"	5.40267738187228	5.40267738187228	222	NA	NA
2	133	"C:\Hannah's FYP\Black14_neu.jpg"	"joy"	"Black"	"eyes"	"Pos"	122	903	2	0	2	"Incon"	6.80572255341699	6.80572255341699	903	NA	NA
2	134	"C:\Hannah's FYP\Black17_neu.jpg"	"vacation"	"Black"	"nose"	"Pos"	132	336	1	1	2	"Incon"	5.8171111599632	5.8171111599632	336	NA	NA
2	135	"C:\Hannah's FYP\Black2_neu.jpg"	"vomit"	"Black"	"forehead"	"Neg"	111	908	2	1	2	"Con"	6.81124437860129	6.81124437860129	908	NA	NA
2	136	"C:\Hannah's FYP\Black7_neu.jpg"	"garbage"	"Black"	"forehead"	"Neg"	111	285	1	0	2	"Con"	5.65248918026865	5.65248918026865	285	NA	NA
2	137	"C:\Hannah's FYP\Black7_neu.jpg"	"paradise"	"Black"	"forehead"	"Pos"	112	681	2	0	2	"Incon"	6.52356230614951	6.52356230614951	681	NA	NA
2	138	"C:\Hannah's FYP\White8_neu.jpg"	"pest"	"White"	"forehead"	"Neg"	211	278	2	1	2	"Incon"	5.62762111369064	5.62762111369064	278	NA	NA
2	139	"C:\Hannah's FYP\White12_neu.jpg"	"cockroach"	"White"	"eyes"	"Neg"	221	533	1	0	2	"Incon"	6.27852142416584	6.27852142416584	533	NA	NA
2	140	"C:\Hannah's FYP\Black1_neu.jpg"	"success"	"Black"	"forehead"	"Pos"	112	1049	2	0	2	"Incon"	6.9555926083963	6.9555926083963	1049	NA	NA
2	141	"C:\Hannah's FYP\Black4_neu.jpg"	"garbage"	"Black"	"forehead"	"Neg"	111	311	2	1	2	"Con"	5.73979291217923	5.73979291217923	311	NA	NA
2	142	"C:\Hannah's FYP\White12_neu.jpg"	"smile"	"White"	"eyes"	"Pos"	222	284	1	1	2	"Con"	5.64897423816121	5.64897423816121	284	NA	NA
2	143	"C:\Hannah's FYP\White6_neu.jpg"	"smile"	"White"	"forehead"	"Pos"	212	642	2	0	2	"Con"	6.46458830368996	6.46458830368996	642	NA	NA
2	144	"C:\Hannah's FYP\Black13_neu.jpg"	"paradise"	"Black"	"eyes"	"Pos"	122	273	1	1	2	"Incon"	5.60947179518496	5.60947179518496	273	NA	NA
2	145	"C:\Hannah's FYP\Black7_neu.jpg"	"love"	"Black"	"forehead"	"Pos"	112	621	2	0	2	"Incon"	6.43133108193348	6.43133108193348	621	NA	NA
2	146	"C:\Hannah's FYP\White17_neu.jpg"	"success"	"White"	"nose"	"Pos"	232	213	1	1	2	"Con"	5.36129216570943	5.36129216570943	213	NA	NA
2	147	"C:\Hannah's FYP\White20_neu.jpg"	"vomit"	"White"	"nose"	"Neg"	231	291	1	0	2	"Incon"	5.67332326717149	5.67332326717149	291	NA	NA
2	148	"C:\Hannah's FYP\Black11_neu.jpg"	"success"	"Black"	"eyes"	"Pos"	122	521	2	0	2	"Incon"	6.25575004175337	6.25575004175337	521	NA	NA
2	149	"C:\Hannah's FYP\Black23_neu.jpg"	"disgust"	"Black"	"nose"	"Neg"	131	202	1	0	2	"Con"	5.30826769740121	5.30826769740121	202	NA	NA
2	150	"C:\Hannah's FYP\White6_neu.jpg"	"cockroach"	"White"	"forehead"	"Neg"	211	547	1	0	2	"Incon"	6.30444880242198	6.30444880242198	547	NA	NA
2	151	"C:\Hannah's FYP\White24_neu.jpg"	"vacation"	"White"	"nose"	"Pos"	232	319	1	1	2	"Con"	5.76519110278484	5.76519110278484	319	NA	NA
2	152	"C:\Hannah's FYP\Black1_neu.jpg"	"sewage"	"Black"	"forehead"	"Neg"	111	587	1	0	2	"Con"	6.3750248198281	6.3750248198281	587	NA	NA
2	153	"C:\Hannah's FYP\White21_neu.jpg"	"cockroach"	"White"	"nose"	"Neg"	231	153	1	0	2	"Incon"	5.03043792139244	5.03043792139244	153	NA	NA
2	154	"C:\Hannah's FYP\Black19_neu.jpg"	"paradise"	"Black"	"nose"	"Pos"	132	308	2	0	2	"Incon"	5.73009978297357	5.73009978297357	308	NA	NA
2	155	"C:\Hannah's FYP\Black24_neu.jpg"	"paradise"	"Black"	"nose"	"Pos"	132	311	2	0	2	"Incon"	5.73979291217923	5.73979291217923	311	NA	NA
2	156	"C:\Hannah's FYP\Black2_neu.jpg"	"despair"	"Black"	"forehead"	"Neg"	111	349	2	1	2	"Con"	5.85507192220243	5.85507192220243	349	NA	NA
2	157	"C:\Hannah's FYP\Black18_neu.jpg"	"smile"	"Black"	"nose"	"Pos"	132	240	1	1	2	"Incon"	5.48063892334199	5.48063892334199	240	NA	NA
2	158	"C:\Hannah's FYP\Black5_neu.jpg"	"success"	"Black"	"forehead"	"Pos"	112	304	2	0	2	"Incon"	5.71702770140622	5.71702770140622	304	NA	NA
2	159	"C:\Hannah's FYP\Black6_neu.jpg"	"joy"	"Black"	"forehead"	"Pos"	112	270	2	0	2	"Incon"	5.59842195899838	5.59842195899838	270	NA	NA
2	160	"C:\Hannah's FYP\White9_neu.jpg"	"despair"	"White"	"eyes"	"Neg"	221	156	2	1	2	"Incon"	5.04985600724954	5.04985600724954	156	NA	NA
2	161	"C:\Hannah's FYP\White22_neu.jpg"	"paradise"	"White"	"nose"	"Pos"	232	320	2	0	2	"Con"	5.76832099579377	5.76832099579377	320	NA	NA
2	162	"C:\Hannah's FYP\Black8_neu.jpg"	"disgust"	"Black"	"forehead"	"Neg"	111	826	1	0	2	"Con"	6.71659477352098	6.71659477352098	826	NA	NA
2	163	"C:\Hannah's FYP\White15_neu.jpg"	"success"	"White"	"eyes"	"Pos"	222	193	1	1	2	"Con"	5.26269018890489	5.26269018890489	193	NA	NA
2	164	"C:\Hannah's FYP\White4_neu.jpg"	"romance"	"White"	"forehead"	"Pos"	212	292	2	0	2	"Con"	5.67675380226828	5.67675380226828	292	NA	NA
2	165	"C:\Hannah's FYP\White1_neu.jpg"	"vomit"	"White"	"forehead"	"Neg"	211	209	2	1	2	"Incon"	5.34233425196481	5.34233425196481	209	NA	NA
2	166	"C:\Hannah's FYP\White18_neu.jpg"	"love"	"White"	"nose"	"Pos"	232	264	1	1	2	"Con"	5.57594910314632	5.57594910314632	264	NA	NA
2	167	"C:\Hannah's FYP\White6_neu.jpg"	"paradise"	"White"	"forehead"	"Pos"	212	495	2	0	2	"Con"	6.20455776256869	6.20455776256869	495	NA	NA
2	168	"C:\Hannah's FYP\White14_neu.jpg"	"love"	"White"	"eyes"	"Pos"	222	257	2	0	2	"Con"	5.54907608489522	5.54907608489522	257	NA	NA
2	169	"C:\Hannah's FYP\Black3_neu.jpg"	"pest"	"Black"	"forehead"	"Neg"	111	551	1	0	2	"Con"	6.31173480915291	6.31173480915291	551	NA	NA
2	170	"C:\Hannah's FYP\White22_neu.jpg"	"garbage"	"White"	"nose"	"Neg"	231	313	2	1	2	"Incon"	5.74620319054015	5.74620319054015	313	NA	NA
2	171	"C:\Hannah's FYP\White17_neu.jpg"	"poison"	"White"	"nose"	"Neg"	231	526	1	0	2	"Incon"	6.26530121273771	6.26530121273771	526	NA	NA
2	172	"C:\Hannah's FYP\Black18_neu.jpg"	"romance"	"Black"	"nose"	"Pos"	132	282	1	1	2	"Incon"	5.64190707093811	5.64190707093811	282	NA	NA
2	173	"C:\Hannah's FYP\Black20_neu.jpg"	"poison"	"Black"	"nose"	"Neg"	131	509	1	0	2	"Con"	6.23244801655052	6.23244801655052	509	NA	NA
2	174	"C:\Hannah's FYP\White11_neu.jpg"	"disgust"	"White"	"eyes"	"Neg"	221	297	2	1	2	"Incon"	5.6937321388027	5.6937321388027	297	NA	NA
2	175	"C:\Hannah's FYP\Black22_neu.jpg"	"vomit"	"Black"	"nose"	"Neg"	131	277	1	0	2	"Con"	5.62401750618734	5.62401750618734	277	NA	NA
2	176	"C:\Hannah's FYP\Black15_neu.jpg"	"garbage"	"Black"	"eyes"	"Neg"	121	404	1	0	2	"Con"	6.00141487796115	6.00141487796115	404	NA	NA
2	177	"C:\Hannah's FYP\Black10_neu.jpg"	"paradise"	"Black"	"eyes"	"Pos"	122	1029	1	1	2	"Incon"	6.93634273583405	6.93634273583405	1029	NA	NA
2	178	"C:\Hannah's FYP\Black12_neu.jpg"	"vacation"	"Black"	"eyes"	"Pos"	122	539	2	0	2	"Incon"	6.289715570909	6.289715570909	539	NA	NA
2	179	"C:\Hannah's FYP\Black22_neu.jpg"	"joy"	"Black"	"nose"	"Pos"	132	452	2	0	2	"Incon"	6.11368217983223	6.11368217983223	452	NA	NA
2	180	"C:\Hannah's FYP\White1_neu.jpg"	"smile"	"White"	"forehead"	"Pos"	212	171	2	0	2	"Con"	5.14166355650266	5.14166355650266	171	NA	NA
2	181	"C:\Hannah's FYP\Black1_neu.jpg"	"joy"	"Black"	"forehead"	"Pos"	112	310	2	0	2	"Incon"	5.73657229747919	5.73657229747919	310	NA	NA
2	182	"C:\Hannah's FYP\White19_neu.jpg"	"smile"	"White"	"nose"	"Pos"	232	392	2	0	2	"Con"	5.97126183979046	5.97126183979046	392	NA	NA
2	183	"C:\Hannah's FYP\White9_neu.jpg"	"poison"	"White"	"eyes"	"Neg"	221	98	2	1	2	"Incon"	4.58496747867057	4.58496747867057	98	NA	NA
2	184	"C:\Hannah's FYP\Black17_neu.jpg"	"sewage"	"Black"	"nose"	"Neg"	131	230	1	0	2	"Con"	5.4380793089232	5.4380793089232	230	NA	NA
2	185	"C:\Hannah's FYP\White20_neu.jpg"	"romance"	"White"	"nose"	"Pos"	232	148	1	1	2	"Con"	4.99721227376411	4.99721227376411	148	NA	NA
2	186	"C:\Hannah's FYP\Black14_neu.jpg"	"cockroach"	"Black"	"eyes"	"Neg"	121	480	1	0	2	"Con"	6.17378610390194	6.17378610390194	480	NA	NA
2	187	"C:\Hannah's FYP\Black9_neu.jpg"	"pest"	"Black"	"eyes"	"Neg"	121	238	2	1	2	"Con"	5.47227067367148	5.47227067367148	238	NA	NA
2	188	"C:\Hannah's FYP\White13_neu.jpg"	"cockroach"	"White"	"eyes"	"Neg"	221	278	1	0	2	"Incon"	5.62762111369064	5.62762111369064	278	NA	NA
2	189	"C:\Hannah's FYP\White23_neu.jpg"	"joy"	"White"	"nose"	"Pos"	232	265	1	1	2	"Con"	5.57972982598622	5.57972982598622	265	NA	NA
2	190	"C:\Hannah's FYP\White19_neu.jpg"	"joy"	"White"	"nose"	"Pos"	232	590	2	0	2	"Con"	6.38012253689976	6.38012253689976	590	NA	NA
2	191	"C:\Hannah's FYP\White7_neu.jpg"	"sewage"	"White"	"forehead"	"Neg"	211	391	1	0	2	"Incon"	5.96870755998537	5.96870755998537	391	NA	NA
2	192	"C:\Hannah's FYP\White1_neu.jpg"	"joy"	"White"	"forehead"	"Pos"	212	232	2	0	2	"Con"	5.44673737166631	5.44673737166631	232	NA	NA
2	1	"C:\Hannah's FYP\White10_neu.jpg"	"paradise"	"White"	"eyes"	"Pos"	222	824	2	0	3	"Con"	6.71417052990947	6.71417052990947	824	NA	NA
2	2	"C:\Hannah's FYP\White23_neu.jpg"	"beauty"	"White"	"nose"	"Pos"	232	563	2	0	3	"Con"	6.33327962813969	6.33327962813969	563	NA	NA
2	3	"C:\Hannah's FYP\White3_neu.jpg"	"disgust"	"White"	"forehead"	"Neg"	211	694	1	0	3	"Incon"	6.5424719605068	6.5424719605068	694	NA	NA
2	4	"C:\Hannah's FYP\White23_neu.jpg"	"success"	"White"	"nose"	"Pos"	232	510	2	0	3	"Con"	6.23441072571837	6.23441072571837	510	NA	NA
2	5	"C:\Hannah's FYP\White15_neu.jpg"	"romance"	"White"	"eyes"	"Pos"	222	827	2	0	3	"Con"	6.71780469502369	6.71780469502369	827	NA	NA
2	6	"C:\Hannah's FYP\Black19_neu.jpg"	"paradise"	"Black"	"nose"	"Pos"	132	642	2	0	3	"Incon"	6.46458830368996	6.46458830368996	642	NA	NA
2	7	"C:\Hannah's FYP\Black17_neu.jpg"	"vacation"	"Black"	"nose"	"Pos"	132	542	2	0	3	"Incon"	6.29526600143965	6.29526600143965	542	NA	NA
2	8	"C:\Hannah's FYP\White19_neu.jpg"	"smile"	"White"	"nose"	"Pos"	232	519	2	0	3	"Con"	6.25190388316589	6.25190388316589	519	NA	NA
2	9	"C:\Hannah's FYP\Black1_neu.jpg"	"beauty"	"Black"	"forehead"	"Pos"	112	475	2	0	3	"Incon"	6.16331480403464	6.16331480403464	475	NA	NA
2	10	"C:\Hannah's FYP\White18_neu.jpg"	"poison"	"White"	"nose"	"Neg"	231	661	1	0	3	"Incon"	6.49375383985169	6.49375383985169	661	NA	NA
2	11	"C:\Hannah's FYP\Black4_neu.jpg"	"disgust"	"Black"	"forehead"	"Neg"	111	747	1	0	3	"Con"	6.61606518513282	6.61606518513282	747	NA	NA
2	12	"C:\Hannah's FYP\White10_neu.jpg"	"vomit"	"White"	"eyes"	"Neg"	221	638	1	0	3	"Incon"	6.45833828334479	6.45833828334479	638	NA	NA
2	13	"C:\Hannah's FYP\Black7_neu.jpg"	"vomit"	"Black"	"forehead"	"Neg"	111	675	1	0	3	"Con"	6.51471269087253	6.51471269087253	675	NA	NA
2	14	"C:\Hannah's FYP\Black16_neu.jpg"	"romance"	"Black"	"eyes"	"Pos"	122	536	2	0	3	"Incon"	6.2841341610708	6.2841341610708	536	NA	NA
2	15	"C:\Hannah's FYP\White17_neu.jpg"	"cockroach"	"White"	"nose"	"Neg"	231	611	1	0	3	"Incon"	6.4150969591716	6.4150969591716	611	NA	NA
2	16	"C:\Hannah's FYP\Black14_neu.jpg"	"despair"	"Black"	"eyes"	"Neg"	121	868	1	0	3	"Con"	6.76619171466035	6.76619171466035	868	NA	NA
2	17	"C:\Hannah's FYP\Black21_neu.jpg"	"cockroach"	"Black"	"nose"	"Neg"	131	733	1	0	3	"Con"	6.59714570188665	6.59714570188665	733	NA	NA
2	18	"C:\Hannah's FYP\Black11_neu.jpg"	"vacation"	"Black"	"eyes"	"Pos"	122	752	2	0	3	"Incon"	6.62273632394984	6.62273632394984	752	NA	NA
2	19	"C:\Hannah's FYP\White23_neu.jpg"	"pest"	"White"	"nose"	"Neg"	231	510	1	0	3	"Incon"	6.23441072571837	6.23441072571837	510	NA	NA
2	20	"C:\Hannah's FYP\Black16_neu.jpg"	"beauty"	"Black"	"eyes"	"Pos"	122	498	2	0	3	"Incon"	6.21060007702465	6.21060007702465	498	NA	NA
2	21	"C:\Hannah's FYP\Black11_neu.jpg"	"despair"	"Black"	"eyes"	"Neg"	121	696	1	0	3	"Con"	6.54534966033442	6.54534966033442	696	NA	NA
2	22	"C:\Hannah's FYP\Black19_neu.jpg"	"sewage"	"Black"	"nose"	"Neg"	131	708	1	0	3	"Con"	6.56244409369372	6.56244409369372	708	NA	NA
2	23	"C:\Hannah's FYP\White22_neu.jpg"	"smile"	"White"	"nose"	"Pos"	232	512	2	0	3	"Con"	6.23832462503951	6.23832462503951	512	NA	NA
2	24	"C:\Hannah's FYP\Black4_neu.jpg"	"paradise"	"Black"	"forehead"	"Pos"	112	549	2	0	3	"Incon"	6.30809844150953	6.30809844150953	549	NA	NA
2	25	"C:\Hannah's FYP\White20_neu.jpg"	"pest"	"White"	"nose"	"Neg"	231	557	1	0	3	"Incon"	6.32256523992728	6.32256523992728	557	NA	NA
2	26	"C:\Hannah's FYP\White4_neu.jpg"	"joy"	"White"	"forehead"	"Pos"	212	471	2	0	3	"Con"	6.15485809401642	6.15485809401642	471	NA	NA
2	27	"C:\Hannah's FYP\White12_neu.jpg"	"garbage"	"White"	"eyes"	"Neg"	221	597	1	0	3	"Incon"	6.3919171133926	6.3919171133926	597	NA	NA
2	28	"C:\Hannah's FYP\Black5_neu.jpg"	"smile"	"Black"	"forehead"	"Pos"	112	566	2	0	3	"Incon"	6.33859407820318	6.33859407820318	566	NA	NA
2	29	"C:\Hannah's FYP\White16_neu.jpg"	"success"	"White"	"eyes"	"Pos"	222	697	2	0	3	"Con"	6.54678541076052	6.54678541076052	697	NA	NA
2	30	"C:\Hannah's FYP\Black9_neu.jpg"	"romance"	"Black"	"eyes"	"Pos"	122	886	2	0	3	"Incon"	6.78671695060508	6.78671695060508	886	NA	NA
2	31	"C:\Hannah's FYP\Black23_neu.jpg"	"success"	"Black"	"nose"	"Pos"	132	735	2	0	3	"Incon"	6.59987049921284	6.59987049921284	735	NA	NA
2	32	"C:\Hannah's FYP\Black13_neu.jpg"	"vomit"	"Black"	"eyes"	"Neg"	121	713	1	0	3	"Con"	6.5694814204143	6.5694814204143	713	NA	NA
2	33	"C:\Hannah's FYP\White23_neu.jpg"	"despair"	"White"	"nose"	"Neg"	231	689	1	0	3	"Incon"	6.53524127101366	6.53524127101366	689	NA	NA
2	34	"C:\Hannah's FYP\Black21_neu.jpg"	"vacation"	"Black"	"nose"	"Pos"	132	618	2	0	3	"Incon"	6.42648845745769	6.42648845745769	618	NA	NA
2	35	"C:\Hannah's FYP\Black15_neu.jpg"	"poison"	"Black"	"eyes"	"Neg"	121	786	1	0	3	"Con"	6.66695679242921	6.66695679242921	786	NA	NA
2	36	"C:\Hannah's FYP\White5_neu.jpg"	"love"	"White"	"forehead"	"Pos"	212	498	2	0	3	"Con"	6.21060007702465	6.21060007702465	498	NA	NA
2	37	"C:\Hannah's FYP\White8_neu.jpg"	"sewage"	"White"	"forehead"	"Neg"	211	664	1	0	3	"Incon"	6.49828214947643	6.49828214947643	664	NA	NA
2	38	"C:\Hannah's FYP\White2_neu.jpg"	"beauty"	"White"	"forehead"	"Pos"	212	646	2	0	3	"Con"	6.4707995037826	6.4707995037826	646	NA	NA
2	39	"C:\Hannah's FYP\White2_neu.jpg"	"paradise"	"White"	"forehead"	"Pos"	212	629	2	0	3	"Con"	6.44413125670044	6.44413125670044	629	NA	NA
2	40	"C:\Hannah's FYP\Black15_neu.jpg"	"love"	"Black"	"eyes"	"Pos"	122	636	2	0	3	"Incon"	6.45519856334012	6.45519856334012	636	NA	NA
2	41	"C:\Hannah's FYP\Black23_neu.jpg"	"vomit"	"Black"	"nose"	"Neg"	131	752	1	0	3	"Con"	6.62273632394984	6.62273632394984	752	NA	NA
2	42	"C:\Hannah's FYP\White21_neu.jpg"	"vacation"	"White"	"nose"	"Pos"	232	759	2	0	3	"Con"	6.63200177739563	6.63200177739563	759	NA	NA
2	43	"C:\Hannah's FYP\Black2_neu.jpg"	"smile"	"Black"	"forehead"	"Pos"	112	1056	2	0	3	"Incon"	6.96224346426621	6.96224346426621	1056	NA	NA
2	44	"C:\Hannah's FYP\Black24_neu.jpg"	"pest"	"Black"	"nose"	"Neg"	131	755	1	0	3	"Con"	6.62671774924902	6.62671774924902	755	NA	NA
2	45	"C:\Hannah's FYP\White20_neu.jpg"	"disgust"	"White"	"nose"	"Neg"	231	857	1	0	3	"Incon"	6.75343791859778	6.75343791859778	857	NA	NA
2	46	"C:\Hannah's FYP\White7_neu.jpg"	"vacation"	"White"	"forehead"	"Pos"	212	758	2	0	3	"Con"	6.63068338564237	6.63068338564237	758	NA	NA
2	47	"C:\Hannah's FYP\Black23_neu.jpg"	"despair"	"Black"	"nose"	"Neg"	131	605	1	0	3	"Con"	6.40522845803084	6.40522845803084	605	NA	NA
2	48	"C:\Hannah's FYP\White15_neu.jpg"	"pest"	"White"	"eyes"	"Neg"	221	966	1	0	3	"Incon"	6.87316383421252	6.87316383421252	966	NA	NA
2	49	"C:\Hannah's FYP\Black20_neu.jpg"	"love"	"Black"	"nose"	"Pos"	132	627	2	0	3	"Incon"	6.44094654063292	6.44094654063292	627	NA	NA
2	50	"C:\Hannah's FYP\Black2_neu.jpg"	"cockroach"	"Black"	"forehead"	"Neg"	111	666	1	0	3	"Con"	6.50128967054039	6.50128967054039	666	NA	NA
2	51	"C:\Hannah's FYP\Black2_neu.jpg"	"pest"	"Black"	"forehead"	"Neg"	111	569	1	0	3	"Con"	6.34388043412633	6.34388043412633	569	NA	NA
2	52	"C:\Hannah's FYP\Black9_neu.jpg"	"smile"	"Black"	"eyes"	"Pos"	122	402	2	0	3	"Incon"	5.99645208861902	5.99645208861902	402	NA	NA
2	53	"C:\Hannah's FYP\Black21_neu.jpg"	"love"	"Black"	"nose"	"Pos"	132	592	1	1	3	"Incon"	6.38350663488401	6.38350663488401	592	NA	NA
2	54	"C:\Hannah's FYP\White22_neu.jpg"	"disgust"	"White"	"nose"	"Neg"	231	649	1	0	3	"Incon"	6.47543271670409	6.47543271670409	649	NA	NA
2	55	"C:\Hannah's FYP\White12_neu.jpg"	"smile"	"White"	"eyes"	"Pos"	222	520	2	0	3	"Con"	6.25382881157547	6.25382881157547	520	NA	NA
2	56	"C:\Hannah's FYP\White22_neu.jpg"	"paradise"	"White"	"nose"	"Pos"	232	460	2	0	3	"Con"	6.13122648948314	6.13122648948314	460	NA	NA
2	57	"C:\Hannah's FYP\Black6_neu.jpg"	"vacation"	"Black"	"forehead"	"Pos"	112	610	2	0	3	"Incon"	6.41345895716736	6.41345895716736	610	NA	NA
2	58	"C:\Hannah's FYP\Black7_neu.jpg"	"love"	"Black"	"forehead"	"Pos"	112	696	2	0	3	"Incon"	6.54534966033442	6.54534966033442	696	NA	NA
2	59	"C:\Hannah's FYP\Black24_neu.jpg"	"sewage"	"Black"	"nose"	"Neg"	131	890	1	0	3	"Con"	6.79122146272619	6.79122146272619	890	NA	NA
2	60	"C:\Hannah's FYP\Black3_neu.jpg"	"romance"	"Black"	"forehead"	"Pos"	112	525	2	0	3	"Incon"	6.26339826259162	6.26339826259162	525	NA	NA
2	61	"C:\Hannah's FYP\White14_neu.jpg"	"despair"	"White"	"eyes"	"Neg"	221	509	1	0	3	"Incon"	6.23244801655052	6.23244801655052	509	NA	NA
2	62	"C:\Hannah's FYP\White17_neu.jpg"	"joy"	"White"	"nose"	"Pos"	232	450	2	0	3	"Con"	6.10924758276437	6.10924758276437	450	NA	NA
2	63	"C:\Hannah's FYP\Black19_neu.jpg"	"romance"	"Black"	"nose"	"Pos"	132	505	2	0	3	"Incon"	6.22455842927536	6.22455842927536	505	NA	NA
2	64	"C:\Hannah's FYP\Black9_neu.jpg"	"garbage"	"Black"	"eyes"	"Neg"	121	589	1	0	3	"Con"	6.37842618365159	6.37842618365159	589	NA	NA
2	65	"C:\Hannah's FYP\White1_neu.jpg"	"despair"	"White"	"forehead"	"Neg"	211	742	1	0	3	"Incon"	6.60934924316738	6.60934924316738	742	NA	NA
2	66	"C:\Hannah's FYP\White4_neu.jpg"	"sewage"	"White"	"forehead"	"Neg"	211	585	1	0	3	"Incon"	6.37161184723186	6.37161184723186	585	NA	NA
2	67	"C:\Hannah's FYP\White12_neu.jpg"	"pest"	"White"	"eyes"	"Neg"	221	626	1	0	3	"Incon"	6.4393503711001	6.4393503711001	626	NA	NA
2	68	"C:\Hannah's FYP\White22_neu.jpg"	"poison"	"White"	"nose"	"Neg"	231	754	1	0	3	"Incon"	6.62539236800796	6.62539236800796	754	NA	NA
2	69	"C:\Hannah's FYP\Black15_neu.jpg"	"cockroach"	"Black"	"eyes"	"Neg"	121	539	1	0	3	"Con"	6.289715570909	6.289715570909	539	NA	NA
2	70	"C:\Hannah's FYP\Black1_neu.jpg"	"poison"	"Black"	"forehead"	"Neg"	111	887	1	0	3	"Con"	6.78784498230958	6.78784498230958	887	NA	NA
2	71	"C:\Hannah's FYP\White14_neu.jpg"	"paradise"	"White"	"eyes"	"Pos"	222	703	2	0	3	"Con"	6.55535689181067	6.55535689181067	703	NA	NA
2	72	"C:\Hannah's FYP\White4_neu.jpg"	"cockroach"	"White"	"forehead"	"Neg"	211	595	1	0	3	"Incon"	6.38856140554563	6.38856140554563	595	NA	NA
2	73	"C:\Hannah's FYP\Black12_neu.jpg"	"love"	"Black"	"eyes"	"Pos"	122	668	2	0	3	"Incon"	6.50428817353665	6.50428817353665	668	NA	NA
2	74	"C:\Hannah's FYP\Black7_neu.jpg"	"beauty"	"Black"	"forehead"	"Pos"	112	592	2	0	3	"Incon"	6.38350663488401	6.38350663488401	592	NA	NA
2	75	"C:\Hannah's FYP\Black20_neu.jpg"	"pest"	"Black"	"nose"	"Neg"	131	900	1	0	3	"Con"	6.80239476332431	6.80239476332431	900	NA	NA
2	76	"C:\Hannah's FYP\Black5_neu.jpg"	"disgust"	"Black"	"forehead"	"Neg"	111	953	1	0	3	"Con"	6.8596149036542	6.8596149036542	953	NA	NA
2	77	"C:\Hannah's FYP\Black20_neu.jpg"	"poison"	"Black"	"nose"	"Neg"	131	949	1	0	3	"Con"	6.85540879860993	6.85540879860993	949	NA	NA
2	78	"C:\Hannah's FYP\Black14_neu.jpg"	"paradise"	"Black"	"eyes"	"Pos"	122	792	2	0	3	"Incon"	6.67456139181443	6.67456139181443	792	NA	NA
2	79	"C:\Hannah's FYP\White9_neu.jpg"	"cockroach"	"White"	"eyes"	"Neg"	221	960	1	0	3	"Incon"	6.86693328446188	6.86693328446188	960	NA	NA
2	80	"C:\Hannah's FYP\Black10_neu.jpg"	"sewage"	"Black"	"eyes"	"Neg"	121	753	1	0	3	"Con"	6.62406522779989	6.62406522779989	753	NA	NA
2	81	"C:\Hannah's FYP\Black4_neu.jpg"	"sewage"	"Black"	"forehead"	"Neg"	111	659	1	0	3	"Con"	6.49072353450251	6.49072353450251	659	NA	NA
2	82	"C:\Hannah's FYP\White3_neu.jpg"	"garbage"	"White"	"forehead"	"Neg"	211	649	1	0	3	"Incon"	6.47543271670409	6.47543271670409	649	NA	NA
2	83	"C:\Hannah's FYP\White15_neu.jpg"	"beauty"	"White"	"eyes"	"Pos"	222	600	2	0	3	"Con"	6.39692965521615	6.39692965521615	600	NA	NA
2	84	"C:\Hannah's FYP\White18_neu.jpg"	"sewage"	"White"	"nose"	"Neg"	231	990	1	0	3	"Incon"	6.89770494312864	6.89770494312864	990	NA	NA
2	85	"C:\Hannah's FYP\White6_neu.jpg"	"despair"	"White"	"forehead"	"Neg"	211	637	1	0	3	"Incon"	6.45676965557216	6.45676965557216	637	NA	NA
2	86	"C:\Hannah's FYP\Black17_neu.jpg"	"vomit"	"Black"	"nose"	"Neg"	131	546	1	0	3	"Con"	6.30261897574491	6.30261897574491	546	NA	NA
2	87	"C:\Hannah's FYP\White19_neu.jpg"	"beauty"	"White"	"nose"	"Pos"	232	539	2	0	3	"Con"	6.289715570909	6.289715570909	539	NA	NA
2	88	"C:\Hannah's FYP\Black6_neu.jpg"	"cockroach"	"Black"	"forehead"	"Neg"	111	830	1	0	3	"Con"	6.72142570079064	6.72142570079064	830	NA	NA
2	89	"C:\Hannah's FYP\Black18_neu.jpg"	"joy"	"Black"	"nose"	"Pos"	132	701	2	0	3	"Incon"	6.55250788703459	6.55250788703459	701	NA	NA
2	90	"C:\Hannah's FYP\Black17_neu.jpg"	"garbage"	"Black"	"nose"	"Neg"	131	903	1	0	3	"Con"	6.80572255341699	6.80572255341699	903	NA	NA
2	91	"C:\Hannah's FYP\Black3_neu.jpg"	"vomit"	"Black"	"forehead"	"Neg"	111	1209	1	0	3	"Con"	7.09754885061479	7.09754885061479	1209	NA	NA
2	92	"C:\Hannah's FYP\White11_neu.jpg"	"disgust"	"White"	"eyes"	"Neg"	221	615	1	0	3	"Incon"	6.42162226780652	6.42162226780652	615	NA	NA
2	93	"C:\Hannah's FYP\Black12_neu.jpg"	"success"	"Black"	"eyes"	"Pos"	122	599	2	0	3	"Incon"	6.39526159811545	6.39526159811545	599	NA	NA
2	94	"C:\Hannah's FYP\White5_neu.jpg"	"disgust"	"White"	"forehead"	"Neg"	211	648	1	0	3	"Incon"	6.47389069635227	6.47389069635227	648	NA	NA
2	95	"C:\Hannah's FYP\Black12_neu.jpg"	"cockroach"	"Black"	"eyes"	"Neg"	121	511	1	0	3	"Con"	6.2363695902037	6.2363695902037	511	NA	NA
2	96	"C:\Hannah's FYP\White8_neu.jpg"	"pest"	"White"	"forehead"	"Neg"	211	524	1	0	3	"Incon"	6.26149168432104	6.26149168432104	524	NA	NA
2	97	"C:\Hannah's FYP\White16_neu.jpg"	"sewage"	"White"	"eyes"	"Neg"	221	720	1	0	3	"Incon"	6.5792512120101	6.5792512120101	720	NA	NA
2	98	"C:\Hannah's FYP\Black8_neu.jpg"	"joy"	"Black"	"forehead"	"Pos"	112	577	2	0	3	"Incon"	6.3578422665081	6.3578422665081	577	NA	NA
2	99	"C:\Hannah's FYP\White13_neu.jpg"	"vomit"	"White"	"eyes"	"Neg"	221	611	1	0	3	"Incon"	6.4150969591716	6.4150969591716	611	NA	NA
2	100	"C:\Hannah's FYP\White24_neu.jpg"	"joy"	"White"	"nose"	"Pos"	232	539	2	0	3	"Con"	6.289715570909	6.289715570909	539	NA	NA
2	101	"C:\Hannah's FYP\White5_neu.jpg"	"poison"	"White"	"forehead"	"Neg"	211	758	1	0	3	"Incon"	6.63068338564237	6.63068338564237	758	NA	NA
2	102	"C:\Hannah's FYP\Black4_neu.jpg"	"vacation"	"Black"	"forehead"	"Pos"	112	808	2	0	3	"Incon"	6.69456205852109	6.69456205852109	808	NA	NA
2	103	"C:\Hannah's FYP\Black6_neu.jpg"	"success"	"Black"	"forehead"	"Pos"	112	760	2	0	3	"Incon"	6.63331843328038	6.63331843328038	760	NA	NA
2	104	"C:\Hannah's FYP\White1_neu.jpg"	"vacation"	"White"	"forehead"	"Pos"	212	730	2	0	3	"Con"	6.59304453414244	6.59304453414244	730	NA	NA
2	105	"C:\Hannah's FYP\White17_neu.jpg"	"despair"	"White"	"nose"	"Neg"	231	757	1	0	3	"Incon"	6.62936325343745	6.62936325343745	757	NA	NA
2	106	"C:\Hannah's FYP\White7_neu.jpg"	"cockroach"	"White"	"forehead"	"Neg"	211	1087	1	0	3	"Incon"	6.99117688712121	6.99117688712121	1087	NA	NA
2	107	"C:\Hannah's FYP\White3_neu.jpg"	"smile"	"White"	"forehead"	"Pos"	212	602	2	0	3	"Con"	6.40025744530882	6.40025744530882	602	NA	NA
2	108	"C:\Hannah's FYP\White6_neu.jpg"	"joy"	"White"	"forehead"	"Pos"	212	715	1	1	3	"Con"	6.57228254269401	6.57228254269401	715	NA	NA
2	109	"C:\Hannah's FYP\Black9_neu.jpg"	"pest"	"Black"	"eyes"	"Neg"	121	751	1	0	3	"Con"	6.62140565176413	6.62140565176413	751	NA	NA
2	110	"C:\Hannah's FYP\Black8_neu.jpg"	"sewage"	"Black"	"forehead"	"Neg"	111	847	1	0	3	"Con"	6.74170069465205	6.74170069465205	847	NA	NA
2	111	"C:\Hannah's FYP\Black11_neu.jpg"	"disgust"	"Black"	"eyes"	"Neg"	121	349	2	1	3	"Con"	5.85507192220243	5.85507192220243	349	NA	NA
2	112	"C:\Hannah's FYP\Black16_neu.jpg"	"disgust"	"Black"	"eyes"	"Neg"	121	1065	1	0	3	"Con"	6.97073007814353	6.97073007814353	1065	NA	NA
2	113	"C:\Hannah's FYP\Black10_neu.jpg"	"beauty"	"Black"	"eyes"	"Pos"	122	2678	2	0	3	"Incon"	7.89282552625112	7.49266662565771	1908.2227783838	NA	NA
2	114	"C:\Hannah's FYP\Black11_neu.jpg"	"joy"	"Black"	"eyes"	"Pos"	122	597	2	0	3	"Incon"	6.3919171133926	6.3919171133926	597	NA	NA
2	115	"C:\Hannah's FYP\White13_neu.jpg"	"joy"	"White"	"eyes"	"Pos"	222	526	2	0	3	"Con"	6.26530121273771	6.26530121273771	526	NA	NA
2	116	"C:\Hannah's FYP\Black2_neu.jpg"	"success"	"Black"	"forehead"	"Pos"	112	578	2	0	3	"Incon"	6.35957386867238	6.35957386867238	578	NA	NA
2	117	"C:\Hannah's FYP\Black20_neu.jpg"	"beauty"	"Black"	"nose"	"Pos"	132	567	2	0	3	"Incon"	6.34035930372775	6.34035930372775	567	NA	NA
2	118	"C:\Hannah's FYP\White19_neu.jpg"	"vomit"	"White"	"nose"	"Neg"	231	486	1	0	3	"Incon"	6.18620862390049	6.18620862390049	486	NA	NA
2	119	"C:\Hannah's FYP\White16_neu.jpg"	"love"	"White"	"eyes"	"Pos"	222	3804	2	0	3	"Con"	8.24380842366528	7.49266662565771	1908.2227783838	NA	NA
2	120	"C:\Hannah's FYP\White16_neu.jpg"	"disgust"	"White"	"eyes"	"Neg"	221	3491	1	0	3	"Incon"	8.15794350710504	7.49266662565771	1908.2227783838	NA	NA
2	121	"C:\Hannah's FYP\White7_neu.jpg"	"smile"	"White"	"forehead"	"Pos"	212	856	2	0	3	"Con"	6.75227037614174	6.75227037614174	856	NA	NA
2	122	"C:\Hannah's FYP\White3_neu.jpg"	"love"	"White"	"forehead"	"Pos"	212	590	1	1	3	"Con"	6.38012253689976	6.38012253689976	590	NA	NA
2	123	"C:\Hannah's FYP\White12_neu.jpg"	"vacation"	"White"	"eyes"	"Pos"	222	623	2	0	3	"Con"	6.43454651878745	6.43454651878745	623	NA	NA
2	124	"C:\Hannah's FYP\White6_neu.jpg"	"paradise"	"White"	"forehead"	"Pos"	212	566	2	0	3	"Con"	6.33859407820318	6.33859407820318	566	NA	NA
2	125	"C:\Hannah's FYP\White18_neu.jpg"	"romance"	"White"	"nose"	"Pos"	232	725	2	0	3	"Con"	6.58617165485467	6.58617165485467	725	NA	NA
2	126	"C:\Hannah's FYP\White5_neu.jpg"	"romance"	"White"	"forehead"	"Pos"	212	560	2	0	3	"Con"	6.32793678372919	6.32793678372919	560	NA	NA
2	127	"C:\Hannah's FYP\Black17_neu.jpg"	"success"	"Black"	"nose"	"Pos"	132	857	2	0	3	"Incon"	6.75343791859778	6.75343791859778	857	NA	NA
2	128	"C:\Hannah's FYP\White14_neu.jpg"	"smile"	"White"	"eyes"	"Pos"	222	1043	2	0	3	"Con"	6.94985645500077	6.94985645500077	1043	NA	NA
2	129	"C:\Hannah's FYP\White2_neu.jpg"	"pest"	"White"	"forehead"	"Neg"	211	1120	1	0	3	"Incon"	7.02108396428914	7.02108396428914	1120	NA	NA
2	130	"C:\Hannah's FYP\Black22_neu.jpg"	"beauty"	"Black"	"nose"	"Pos"	132	784	2	0	3	"Incon"	6.66440902035041	6.66440902035041	784	NA	NA
2	131	"C:\Hannah's FYP\Black6_neu.jpg"	"despair"	"Black"	"forehead"	"Neg"	111	953	1	0	3	"Con"	6.8596149036542	6.8596149036542	953	NA	NA
2	132	"C:\Hannah's FYP\White24_neu.jpg"	"romance"	"White"	"nose"	"Pos"	232	690	2	0	3	"Con"	6.5366915975913	6.5366915975913	690	NA	NA
2	133	"C:\Hannah's FYP\White10_neu.jpg"	"love"	"White"	"eyes"	"Pos"	222	767	2	0	3	"Con"	6.64248680136726	6.64248680136726	767	NA	NA
2	134	"C:\Hannah's FYP\Black18_neu.jpg"	"disgust"	"Black"	"nose"	"Neg"	131	577	1	0	3	"Con"	6.3578422665081	6.3578422665081	577	NA	NA
2	135	"C:\Hannah's FYP\Black8_neu.jpg"	"paradise"	"Black"	"forehead"	"Pos"	112	1040	2	0	3	"Incon"	6.94697599213542	6.94697599213542	1040	NA	NA
2	136	"C:\Hannah's FYP\Black15_neu.jpg"	"joy"	"Black"	"eyes"	"Pos"	122	478	2	0	3	"Incon"	6.16961073249146	6.16961073249146	478	NA	NA
2	137	"C:\Hannah's FYP\White2_neu.jpg"	"poison"	"White"	"forehead"	"Neg"	211	716	1	0	3	"Incon"	6.57368016696065	6.57368016696065	716	NA	NA
2	138	"C:\Hannah's FYP\White4_neu.jpg"	"success"	"White"	"forehead"	"Pos"	212	488	2	0	3	"Con"	6.19031540585315	6.19031540585315	488	NA	NA
2	139	"C:\Hannah's FYP\White8_neu.jpg"	"beauty"	"White"	"forehead"	"Pos"	212	853	2	0	3	"Con"	6.74875954749168	6.74875954749168	853	NA	NA
2	140	"C:\Hannah's FYP\Black24_neu.jpg"	"paradise"	"Black"	"nose"	"Pos"	132	848	2	0	3	"Incon"	6.7428806357919	6.7428806357919	848	NA	NA
2	141	"C:\Hannah's FYP\Black8_neu.jpg"	"poison"	"Black"	"forehead"	"Neg"	111	1508	1	0	3	"Con"	7.3185395485679	7.3185395485679	1508	NA	NA
2	142	"C:\Hannah's FYP\White24_neu.jpg"	"vomit"	"White"	"nose"	"Neg"	231	766	1	0	3	"Incon"	6.64118216974059	6.64118216974059	766	NA	NA
2	143	"C:\Hannah's FYP\White11_neu.jpg"	"success"	"White"	"eyes"	"Pos"	222	504	2	0	3	"Con"	6.22257626807137	6.22257626807137	504	NA	NA
2	144	"C:\Hannah's FYP\White9_neu.jpg"	"sewage"	"White"	"eyes"	"Neg"	221	605	1	0	3	"Incon"	6.40522845803084	6.40522845803084	605	NA	NA
2	145	"C:\Hannah's FYP\White18_neu.jpg"	"love"	"White"	"nose"	"Pos"	232	738	2	0	3	"Con"	6.60394382460047	6.60394382460047	738	NA	NA
2	146	"C:\Hannah's FYP\White13_neu.jpg"	"vacation"	"White"	"eyes"	"Pos"	222	636	2	0	3	"Con"	6.45519856334012	6.45519856334012	636	NA	NA
2	147	"C:\Hannah's FYP\White24_neu.jpg"	"garbage"	"White"	"nose"	"Neg"	231	587	1	0	3	"Incon"	6.3750248198281	6.3750248198281	587	NA	NA
2	148	"C:\Hannah's FYP\Black16_neu.jpg"	"sewage"	"Black"	"eyes"	"Neg"	121	604	1	0	3	"Con"	6.40357419793482	6.40357419793482	604	NA	NA
2	149	"C:\Hannah's FYP\Black22_neu.jpg"	"disgust"	"Black"	"nose"	"Neg"	131	986	1	0	3	"Con"	6.89365635460264	6.89365635460264	986	NA	NA
2	150	"C:\Hannah's FYP\White20_neu.jpg"	"paradise"	"White"	"nose"	"Pos"	232	526	2	0	3	"Con"	6.26530121273771	6.26530121273771	526	NA	NA
2	151	"C:\Hannah's FYP\Black12_neu.jpg"	"poison"	"Black"	"eyes"	"Neg"	121	602	1	0	3	"Con"	6.40025744530882	6.40025744530882	602	NA	NA
2	152	"C:\Hannah's FYP\White21_neu.jpg"	"cockroach"	"White"	"nose"	"Neg"	231	575	2	1	3	"Incon"	6.35437004079735	6.35437004079735	575	NA	NA
2	153	"C:\Hannah's FYP\Black10_neu.jpg"	"paradise"	"Black"	"eyes"	"Pos"	122	1952	2	0	3	"Incon"	7.57660976697304	7.49266662565771	1908.2227783838	NA	NA
2	154	"C:\Hannah's FYP\Black21_neu.jpg"	"garbage"	"Black"	"nose"	"Neg"	131	500	1	0	3	"Con"	6.21460809842219	6.21460809842219	500	NA	NA
2	155	"C:\Hannah's FYP\White6_neu.jpg"	"vomit"	"White"	"forehead"	"Neg"	211	520	1	0	3	"Incon"	6.25382881157547	6.25382881157547	520	NA	NA
2	156	"C:\Hannah's FYP\Black3_neu.jpg"	"garbage"	"Black"	"forehead"	"Neg"	111	947	1	0	3	"Con"	6.85329909318608	6.85329909318608	947	NA	NA
2	157	"C:\Hannah's FYP\White8_neu.jpg"	"success"	"White"	"forehead"	"Pos"	212	573	2	0	3	"Con"	6.35088571671474	6.35088571671474	573	NA	NA
2	158	"C:\Hannah's FYP\White13_neu.jpg"	"garbage"	"White"	"eyes"	"Neg"	221	831	1	0	3	"Incon"	6.72262979485545	6.72262979485545	831	NA	NA
2	159	"C:\Hannah's FYP\White10_neu.jpg"	"despair"	"White"	"eyes"	"Neg"	221	598	1	0	3	"Incon"	6.39359075395063	6.39359075395063	598	NA	NA
2	160	"C:\Hannah's FYP\Black18_neu.jpg"	"cockroach"	"Black"	"nose"	"Neg"	131	1127	1	0	3	"Con"	7.02731451403978	7.02731451403978	1127	NA	NA
2	161	"C:\Hannah's FYP\Black10_neu.jpg"	"vomit"	"Black"	"eyes"	"Neg"	121	721	1	0	3	"Con"	6.58063913728495	6.58063913728495	721	NA	NA
2	162	"C:\Hannah's FYP\White20_neu.jpg"	"vacation"	"White"	"nose"	"Pos"	232	1769	2	0	3	"Con"	7.47816969415979	7.47816969415979	1769	NA	NA
2	163	"C:\Hannah's FYP\White17_neu.jpg"	"success"	"White"	"nose"	"Pos"	232	463	2	0	3	"Con"	6.13772705408623	6.13772705408623	463	NA	NA
2	164	"C:\Hannah's FYP\Black13_neu.jpg"	"pest"	"Black"	"eyes"	"Neg"	121	670	1	0	3	"Con"	6.50727771238501	6.50727771238501	670	NA	NA
2	165	"C:\Hannah's FYP\Black14_neu.jpg"	"smile"	"Black"	"eyes"	"Pos"	122	812	2	0	3	"Incon"	6.69950034016168	6.69950034016168	812	NA	NA
2	166	"C:\Hannah's FYP\Black7_neu.jpg"	"garbage"	"Black"	"forehead"	"Neg"	111	681	1	0	3	"Con"	6.52356230614951	6.52356230614951	681	NA	NA
2	167	"C:\Hannah's FYP\White11_neu.jpg"	"poison"	"White"	"eyes"	"Neg"	221	838	1	0	3	"Incon"	6.73101810048208	6.73101810048208	838	NA	NA
2	168	"C:\Hannah's FYP\Black19_neu.jpg"	"despair"	"Black"	"nose"	"Neg"	131	772	1	0	3	"Con"	6.64898455002478	6.64898455002478	772	NA	NA
2	169	"C:\Hannah's FYP\White7_neu.jpg"	"garbage"	"White"	"forehead"	"Neg"	211	541	1	0	3	"Incon"	6.29341927884648	6.29341927884648	541	NA	NA
2	170	"C:\Hannah's FYP\Black5_neu.jpg"	"romance"	"Black"	"forehead"	"Pos"	112	680	2	0	3	"Incon"	6.52209279817015	6.52209279817015	680	NA	NA
2	171	"C:\Hannah's FYP\White21_neu.jpg"	"love"	"White"	"nose"	"Pos"	232	674	2	0	3	"Con"	6.51323011091231	6.51323011091231	674	NA	NA
2	172	"C:\Hannah's FYP\Black3_neu.jpg"	"love"	"Black"	"forehead"	"Pos"	112	510	2	0	3	"Incon"	6.23441072571837	6.23441072571837	510	NA	NA
2	173	"C:\Hannah's FYP\White1_neu.jpg"	"vomit"	"White"	"forehead"	"Neg"	211	595	1	0	3	"Incon"	6.38856140554563	6.38856140554563	595	NA	NA
2	174	"C:\Hannah's FYP\Black24_neu.jpg"	"romance"	"Black"	"nose"	"Pos"	132	513	2	0	3	"Incon"	6.24027584517077	6.24027584517077	513	NA	NA
2	175	"C:\Hannah's FYP\White21_neu.jpg"	"sewage"	"White"	"nose"	"Neg"	231	538	1	0	3	"Incon"	6.28785856016178	6.28785856016178	538	NA	NA
2	176	"C:\Hannah's FYP\White11_neu.jpg"	"beauty"	"White"	"eyes"	"Pos"	222	446	2	0	3	"Con"	6.10031895202006	6.10031895202006	446	NA	NA
2	177	"C:\Hannah's FYP\White9_neu.jpg"	"joy"	"White"	"eyes"	"Pos"	222	557	2	0	3	"Con"	6.32256523992728	6.32256523992728	557	NA	NA
2	178	"C:\Hannah's FYP\White15_neu.jpg"	"cockroach"	"White"	"eyes"	"Neg"	221	632	1	0	3	"Incon"	6.44888939414686	6.44888939414686	632	NA	NA
2	179	"C:\Hannah's FYP\White9_neu.jpg"	"romance"	"White"	"eyes"	"Pos"	222	559	2	0	3	"Con"	6.3261494731551	6.3261494731551	559	NA	NA
2	180	"C:\Hannah's FYP\Black1_neu.jpg"	"joy"	"Black"	"forehead"	"Pos"	112	722	2	0	3	"Incon"	6.58202513889283	6.58202513889283	722	NA	NA
2	181	"C:\Hannah's FYP\Black22_neu.jpg"	"joy"	"Black"	"nose"	"Pos"	132	554	2	0	3	"Incon"	6.31716468674728	6.31716468674728	554	NA	NA
2	182	"C:\Hannah's FYP\Black1_neu.jpg"	"despair"	"Black"	"forehead"	"Neg"	111	677	1	0	3	"Con"	6.51767127291227	6.51767127291227	677	NA	NA
2	183	"C:\Hannah's FYP\White1_neu.jpg"	"romance"	"White"	"forehead"	"Pos"	212	698	2	0	3	"Con"	6.54821910276237	6.54821910276237	698	NA	NA
2	184	"C:\Hannah's FYP\Black13_neu.jpg"	"success"	"Black"	"eyes"	"Pos"	122	615	2	0	3	"Incon"	6.42162226780652	6.42162226780652	615	NA	NA
2	185	"C:\Hannah's FYP\Black22_neu.jpg"	"poison"	"Black"	"nose"	"Neg"	131	893	1	0	3	"Con"	6.7945865808765	6.7945865808765	893	NA	NA
2	186	"C:\Hannah's FYP\Black14_neu.jpg"	"garbage"	"Black"	"eyes"	"Neg"	121	649	1	0	3	"Con"	6.47543271670409	6.47543271670409	649	NA	NA
2	187	"C:\Hannah's FYP\White14_neu.jpg"	"poison"	"White"	"eyes"	"Neg"	221	668	1	0	3	"Incon"	6.50428817353665	6.50428817353665	668	NA	NA
2	188	"C:\Hannah's FYP\Black23_neu.jpg"	"smile"	"Black"	"nose"	"Pos"	132	839	2	0	3	"Incon"	6.73221070646721	6.73221070646721	839	NA	NA
2	189	"C:\Hannah's FYP\Black5_neu.jpg"	"pest"	"Black"	"forehead"	"Neg"	111	573	1	0	3	"Con"	6.35088571671474	6.35088571671474	573	NA	NA
2	190	"C:\Hannah's FYP\Black18_neu.jpg"	"smile"	"Black"	"nose"	"Pos"	132	519	2	0	3	"Incon"	6.25190388316589	6.25190388316589	519	NA	NA
2	191	"C:\Hannah's FYP\Black13_neu.jpg"	"vacation"	"Black"	"eyes"	"Pos"	122	643	2	0	3	"Incon"	6.46614472423762	6.46614472423762	643	NA	NA
2	192	"C:\Hannah's FYP\White19_neu.jpg"	"garbage"	"White"	"nose"	"Neg"	231	792	1	0	3	"Incon"	6.67456139181443	6.67456139181443	792	NA	NA
2	1	"C:\Hannah's FYP\White21_neu.jpg"	"beauty"	"White"	"nose"	"Pos"	232	3461	2	0	4	"Con"	8.14931284363534	7.59369400871859	1944.57544831985	NA	NA
2	2	"C:\Hannah's FYP\White18_neu.jpg"	"vacation"	"White"	"nose"	"Pos"	232	735	2	0	4	"Con"	6.59987049921284	6.59987049921284	735	NA	NA
2	3	"C:\Hannah's FYP\Black21_neu.jpg"	"pest"	"Black"	"nose"	"Neg"	131	1158	1	0	4	"Con"	7.05444965813294	7.05444965813294	1158	NA	NA
2	4	"C:\Hannah's FYP\Black10_neu.jpg"	"romance"	"Black"	"eyes"	"Pos"	122	831	2	0	4	"Incon"	6.72262979485545	6.72262979485545	831	NA	NA
2	5	"C:\Hannah's FYP\Black6_neu.jpg"	"romance"	"Black"	"forehead"	"Pos"	112	758	2	0	4	"Incon"	6.63068338564237	6.63068338564237	758	NA	NA
2	6	"C:\Hannah's FYP\White22_neu.jpg"	"pest"	"White"	"nose"	"Neg"	231	847	1	0	4	"Incon"	6.74170069465205	6.74170069465205	847	NA	NA
2	7	"C:\Hannah's FYP\White16_neu.jpg"	"sewage"	"White"	"eyes"	"Neg"	221	924	1	0	4	"Incon"	6.82871207164168	6.82871207164168	924	NA	NA
2	8	"C:\Hannah's FYP\White3_neu.jpg"	"pest"	"White"	"forehead"	"Neg"	211	535	1	0	4	"Incon"	6.28226674689601	6.28226674689601	535	NA	NA
2	9	"C:\Hannah's FYP\White22_neu.jpg"	"joy"	"White"	"nose"	"Pos"	232	538	2	0	4	"Con"	6.28785856016178	6.28785856016178	538	NA	NA
2	10	"C:\Hannah's FYP\White2_neu.jpg"	"disgust"	"White"	"forehead"	"Neg"	211	869	1	0	4	"Incon"	6.76734312526539	6.76734312526539	869	NA	NA
2	11	"C:\Hannah's FYP\Black4_neu.jpg"	"disgust"	"Black"	"forehead"	"Neg"	111	1042	1	0	4	"Con"	6.94889722231331	6.94889722231331	1042	NA	NA
2	12	"C:\Hannah's FYP\Black2_neu.jpg"	"beauty"	"Black"	"forehead"	"Pos"	112	664	2	0	4	"Incon"	6.49828214947643	6.49828214947643	664	NA	NA
2	13	"C:\Hannah's FYP\Black12_neu.jpg"	"smile"	"Black"	"eyes"	"Pos"	122	566	2	0	4	"Incon"	6.33859407820318	6.33859407820318	566	NA	NA
2	14	"C:\Hannah's FYP\Black10_neu.jpg"	"vacation"	"Black"	"eyes"	"Pos"	122	553	2	0	4	"Incon"	6.31535800152233	6.31535800152233	553	NA	NA
2	15	"C:\Hannah's FYP\White15_neu.jpg"	"pest"	"White"	"eyes"	"Neg"	221	595	1	0	4	"Incon"	6.38856140554563	6.38856140554563	595	NA	NA
2	16	"C:\Hannah's FYP\Black5_neu.jpg"	"love"	"Black"	"forehead"	"Pos"	112	588	2	0	4	"Incon"	6.37672694789863	6.37672694789863	588	NA	NA
2	17	"C:\Hannah's FYP\White24_neu.jpg"	"vomit"	"White"	"nose"	"Neg"	231	661	1	0	4	"Incon"	6.49375383985169	6.49375383985169	661	NA	NA
2	18	"C:\Hannah's FYP\Black2_neu.jpg"	"romance"	"Black"	"forehead"	"Pos"	112	491	2	0	4	"Incon"	6.19644412779452	6.19644412779452	491	NA	NA
2	19	"C:\Hannah's FYP\Black15_neu.jpg"	"poison"	"Black"	"eyes"	"Neg"	121	641	1	0	4	"Con"	6.46302945692067	6.46302945692067	641	NA	NA
2	20	"C:\Hannah's FYP\Black20_neu.jpg"	"pest"	"Black"	"nose"	"Neg"	131	827	1	0	4	"Con"	6.71780469502369	6.71780469502369	827	NA	NA
2	21	"C:\Hannah's FYP\Black12_neu.jpg"	"paradise"	"Black"	"eyes"	"Pos"	122	754	2	0	4	"Incon"	6.62539236800796	6.62539236800796	754	NA	NA
2	22	"C:\Hannah's FYP\Black12_neu.jpg"	"despair"	"Black"	"eyes"	"Neg"	121	748	1	0	4	"Con"	6.61740297797448	6.61740297797448	748	NA	NA
2	23	"C:\Hannah's FYP\White1_neu.jpg"	"paradise"	"White"	"forehead"	"Pos"	212	2055	2	0	4	"Con"	7.62803112693033	7.59369400871859	1944.57544831985	NA	NA
2	24	"C:\Hannah's FYP\White19_neu.jpg"	"garbage"	"White"	"nose"	"Neg"	231	653	1	0	4	"Incon"	6.48157712927643	6.48157712927643	653	NA	NA
2	25	"C:\Hannah's FYP\Black21_neu.jpg"	"love"	"Black"	"nose"	"Pos"	132	680	2	0	4	"Incon"	6.52209279817015	6.52209279817015	680	NA	NA
2	26	"C:\Hannah's FYP\Black16_neu.jpg"	"beauty"	"Black"	"eyes"	"Pos"	122	629	2	0	4	"Incon"	6.44413125670044	6.44413125670044	629	NA	NA
2	27	"C:\Hannah's FYP\Black18_neu.jpg"	"despair"	"Black"	"nose"	"Neg"	131	589	1	0	4	"Con"	6.37842618365159	6.37842618365159	589	NA	NA
2	28	"C:\Hannah's FYP\White16_neu.jpg"	"joy"	"White"	"eyes"	"Pos"	222	742	2	0	4	"Con"	6.60934924316738	6.60934924316738	742	NA	NA
2	29	"C:\Hannah's FYP\White16_neu.jpg"	"success"	"White"	"eyes"	"Pos"	222	496	2	0	4	"Con"	6.20657592672493	6.20657592672493	496	NA	NA
2	30	"C:\Hannah's FYP\White24_neu.jpg"	"cockroach"	"White"	"nose"	"Neg"	231	718	1	0	4	"Incon"	6.57646956904822	6.57646956904822	718	NA	NA
2	31	"C:\Hannah's FYP\White5_neu.jpg"	"success"	"White"	"forehead"	"Pos"	212	817	2	0	4	"Con"	6.70563909486	6.70563909486	817	NA	NA
2	32	"C:\Hannah's FYP\White9_neu.jpg"	"success"	"White"	"eyes"	"Pos"	222	745	2	0	4	"Con"	6.61338421837956	6.61338421837956	745	NA	NA
2	33	"C:\Hannah's FYP\Black23_neu.jpg"	"poison"	"Black"	"nose"	"Neg"	131	832	1	0	4	"Con"	6.72383244082121	6.72383244082121	832	NA	NA
2	34	"C:\Hannah's FYP\White18_neu.jpg"	"sewage"	"White"	"nose"	"Neg"	231	1163	1	0	4	"Incon"	7.05875815251866	7.05875815251866	1163	NA	NA
2	35	"C:\Hannah's FYP\White18_neu.jpg"	"joy"	"White"	"nose"	"Pos"	232	1112	2	0	4	"Con"	7.01391547481053	7.01391547481053	1112	NA	NA
2	36	"C:\Hannah's FYP\Black20_neu.jpg"	"smile"	"Black"	"nose"	"Pos"	132	879	2	0	4	"Incon"	6.77878489768518	6.77878489768518	879	NA	NA
2	37	"C:\Hannah's FYP\Black17_neu.jpg"	"joy"	"Black"	"nose"	"Pos"	132	721	2	0	4	"Incon"	6.58063913728495	6.58063913728495	721	NA	NA
2	38	"C:\Hannah's FYP\Black21_neu.jpg"	"success"	"Black"	"nose"	"Pos"	132	1034	2	0	4	"Incon"	6.94119005506837	6.94119005506837	1034	NA	NA
2	39	"C:\Hannah's FYP\White1_neu.jpg"	"despair"	"White"	"forehead"	"Neg"	211	600	1	0	4	"Incon"	6.39692965521615	6.39692965521615	600	NA	NA
2	40	"C:\Hannah's FYP\White12_neu.jpg"	"beauty"	"White"	"eyes"	"Pos"	222	953	2	0	4	"Con"	6.8596149036542	6.8596149036542	953	NA	NA
2	41	"C:\Hannah's FYP\Black14_neu.jpg"	"success"	"Black"	"eyes"	"Pos"	122	746	2	0	4	"Incon"	6.61472560020376	6.61472560020376	746	NA	NA
2	42	"C:\Hannah's FYP\White17_neu.jpg"	"vomit"	"White"	"nose"	"Neg"	231	1020	1	0	4	"Incon"	6.92755790627832	6.92755790627832	1020	NA	NA
2	43	"C:\Hannah's FYP\Black4_neu.jpg"	"paradise"	"Black"	"forehead"	"Pos"	112	723	2	0	4	"Incon"	6.58340922215876	6.58340922215876	723	NA	NA
2	44	"C:\Hannah's FYP\Black12_neu.jpg"	"vomit"	"Black"	"eyes"	"Neg"	121	1094	1	0	4	"Con"	6.99759598298193	6.99759598298193	1094	NA	NA
2	45	"C:\Hannah's FYP\White2_neu.jpg"	"vacation"	"White"	"forehead"	"Pos"	212	634	2	0	4	"Con"	6.45204895443723	6.45204895443723	634	NA	NA
2	46	"C:\Hannah's FYP\Black24_neu.jpg"	"vomit"	"Black"	"nose"	"Neg"	131	973	1	0	4	"Con"	6.880384082186	6.880384082186	973	NA	NA
2	47	"C:\Hannah's FYP\Black9_neu.jpg"	"love"	"Black"	"eyes"	"Pos"	122	798	2	0	4	"Incon"	6.68210859744981	6.68210859744981	798	NA	NA
2	48	"C:\Hannah's FYP\White9_neu.jpg"	"poison"	"White"	"eyes"	"Neg"	221	766	1	0	4	"Incon"	6.64118216974059	6.64118216974059	766	NA	NA
2	49	"C:\Hannah's FYP\White20_neu.jpg"	"smile"	"White"	"nose"	"Pos"	232	692	2	0	4	"Con"	6.53958595561767	6.53958595561767	692	NA	NA
2	50	"C:\Hannah's FYP\Black23_neu.jpg"	"smile"	"Black"	"nose"	"Pos"	132	877	2	0	4	"Incon"	6.77650699237218	6.77650699237218	877	NA	NA
2	51	"C:\Hannah's FYP\Black17_neu.jpg"	"vacation"	"Black"	"nose"	"Pos"	132	776	2	0	4	"Incon"	6.65415252018322	6.65415252018322	776	NA	NA
2	52	"C:\Hannah's FYP\White16_neu.jpg"	"disgust"	"White"	"eyes"	"Neg"	221	713	1	0	4	"Incon"	6.5694814204143	6.5694814204143	713	NA	NA
2	53	"C:\Hannah's FYP\Black17_neu.jpg"	"poison"	"Black"	"nose"	"Neg"	131	811	1	0	4	"Con"	6.69826805411541	6.69826805411541	811	NA	NA
2	54	"C:\Hannah's FYP\Black1_neu.jpg"	"pest"	"Black"	"forehead"	"Neg"	111	995	1	0	4	"Con"	6.90274273715859	6.90274273715859	995	NA	NA
2	55	"C:\Hannah's FYP\White5_neu.jpg"	"paradise"	"White"	"forehead"	"Pos"	212	723	2	0	4	"Con"	6.58340922215876	6.58340922215876	723	NA	NA
2	56	"C:\Hannah's FYP\Black2_neu.jpg"	"sewage"	"Black"	"forehead"	"Neg"	111	902	1	0	4	"Con"	6.80461452006262	6.80461452006262	902	NA	NA
2	57	"C:\Hannah's FYP\White13_neu.jpg"	"poison"	"White"	"eyes"	"Neg"	221	969	1	0	4	"Incon"	6.87626461189077	6.87626461189077	969	NA	NA
2	58	"C:\Hannah's FYP\Black21_neu.jpg"	"cockroach"	"Black"	"nose"	"Neg"	131	702	1	0	4	"Con"	6.55393340402581	6.55393340402581	702	NA	NA
2	59	"C:\Hannah's FYP\White12_neu.jpg"	"despair"	"White"	"eyes"	"Neg"	221	850	1	0	4	"Incon"	6.74523634948436	6.74523634948436	850	NA	NA
2	60	"C:\Hannah's FYP\Black8_neu.jpg"	"cockroach"	"Black"	"forehead"	"Neg"	111	1007	1	0	4	"Con"	6.91473089271856	6.91473089271856	1007	NA	NA
2	61	"C:\Hannah's FYP\Black7_neu.jpg"	"vomit"	"Black"	"forehead"	"Neg"	111	859	1	0	4	"Con"	6.75576892198425	6.75576892198425	859	NA	NA
2	62	"C:\Hannah's FYP\Black5_neu.jpg"	"garbage"	"Black"	"forehead"	"Neg"	111	952	1	0	4	"Con"	6.85856503479136	6.85856503479136	952	NA	NA
2	63	"C:\Hannah's FYP\Black16_neu.jpg"	"garbage"	"Black"	"eyes"	"Neg"	121	1010	1	0	4	"Con"	6.9177056098353	6.9177056098353	1010	NA	NA
2	64	"C:\Hannah's FYP\Black14_neu.jpg"	"cockroach"	"Black"	"eyes"	"Neg"	121	809	1	0	4	"Con"	6.69579891705849	6.69579891705849	809	NA	NA
2	65	"C:\Hannah's FYP\Black6_neu.jpg"	"despair"	"Black"	"forehead"	"Neg"	111	865	1	0	4	"Con"	6.76272950693188	6.76272950693188	865	NA	NA
2	66	"C:\Hannah's FYP\Black24_neu.jpg"	"paradise"	"Black"	"nose"	"Pos"	132	843	2	0	4	"Incon"	6.73696695800186	6.73696695800186	843	NA	NA
2	67	"C:\Hannah's FYP\White13_neu.jpg"	"cockroach"	"White"	"eyes"	"Neg"	221	778	1	0	4	"Incon"	6.65672652417839	6.65672652417839	778	NA	NA
2	68	"C:\Hannah's FYP\White4_neu.jpg"	"smile"	"White"	"forehead"	"Pos"	212	619	2	0	4	"Con"	6.4281052726846	6.4281052726846	619	NA	NA
2	69	"C:\Hannah's FYP\White11_neu.jpg"	"paradise"	"White"	"eyes"	"Pos"	222	554	2	0	4	"Con"	6.31716468674728	6.31716468674728	554	NA	NA
2	70	"C:\Hannah's FYP\White13_neu.jpg"	"paradise"	"White"	"eyes"	"Pos"	222	709	2	0	4	"Con"	6.56385552653213	6.56385552653213	709	NA	NA
2	71	"C:\Hannah's FYP\Black22_neu.jpg"	"vacation"	"Black"	"nose"	"Pos"	132	830	2	0	4	"Incon"	6.72142570079064	6.72142570079064	830	NA	NA
2	72	"C:\Hannah's FYP\Black9_neu.jpg"	"poison"	"Black"	"eyes"	"Neg"	121	885	1	0	4	"Con"	6.78558764500793	6.78558764500793	885	NA	NA
2	73	"C:\Hannah's FYP\Black17_neu.jpg"	"disgust"	"Black"	"nose"	"Neg"	131	823	1	0	4	"Con"	6.71295620067707	6.71295620067707	823	NA	NA
2	74	"C:\Hannah's FYP\Black7_neu.jpg"	"joy"	"Black"	"forehead"	"Pos"	112	716	2	0	4	"Incon"	6.57368016696065	6.57368016696065	716	NA	NA
2	75	"C:\Hannah's FYP\Black2_neu.jpg"	"vomit"	"Black"	"forehead"	"Neg"	111	608	1	0	4	"Con"	6.41017488196617	6.41017488196617	608	NA	NA
2	76	"C:\Hannah's FYP\Black1_neu.jpg"	"vacation"	"Black"	"forehead"	"Pos"	112	720	2	0	4	"Incon"	6.5792512120101	6.5792512120101	720	NA	NA
2	77	"C:\Hannah's FYP\White11_neu.jpg"	"sewage"	"White"	"eyes"	"Neg"	221	619	1	0	4	"Incon"	6.4281052726846	6.4281052726846	619	NA	NA
2	78	"C:\Hannah's FYP\Black23_neu.jpg"	"beauty"	"Black"	"nose"	"Pos"	132	528	2	0	4	"Incon"	6.26909628370626	6.26909628370626	528	NA	NA
2	79	"C:\Hannah's FYP\Black5_neu.jpg"	"sewage"	"Black"	"forehead"	"Neg"	111	716	1	0	4	"Con"	6.57368016696065	6.57368016696065	716	NA	NA
2	80	"C:\Hannah's FYP\White8_neu.jpg"	"beauty"	"White"	"forehead"	"Pos"	212	520	2	0	4	"Con"	6.25382881157547	6.25382881157547	520	NA	NA
2	81	"C:\Hannah's FYP\Black10_neu.jpg"	"disgust"	"Black"	"eyes"	"Neg"	121	844	1	0	4	"Con"	6.73815249459596	6.73815249459596	844	NA	NA
2	82	"C:\Hannah's FYP\Black19_neu.jpg"	"vomit"	"Black"	"nose"	"Neg"	131	1330	1	0	4	"Con"	7.1929342212158	7.1929342212158	1330	NA	NA
2	83	"C:\Hannah's FYP\White20_neu.jpg"	"disgust"	"White"	"nose"	"Neg"	231	632	1	0	4	"Incon"	6.44888939414686	6.44888939414686	632	NA	NA
2	84	"C:\Hannah's FYP\White13_neu.jpg"	"vacation"	"White"	"eyes"	"Pos"	222	584	2	0	4	"Con"	6.36990098282823	6.36990098282823	584	NA	NA
2	85	"C:\Hannah's FYP\White5_neu.jpg"	"disgust"	"White"	"forehead"	"Neg"	211	1185	1	0	4	"Incon"	7.07749805356923	7.07749805356923	1185	NA	NA
2	86	"C:\Hannah's FYP\Black7_neu.jpg"	"disgust"	"Black"	"forehead"	"Neg"	111	590	1	0	4	"Con"	6.38012253689976	6.38012253689976	590	NA	NA
2	87	"C:\Hannah's FYP\White5_neu.jpg"	"pest"	"White"	"forehead"	"Neg"	211	687	1	0	4	"Incon"	6.53233429222235	6.53233429222235	687	NA	NA
2	88	"C:\Hannah's FYP\Black24_neu.jpg"	"despair"	"Black"	"nose"	"Neg"	131	1001	1	0	4	"Con"	6.90875477931522	6.90875477931522	1001	NA	NA
2	89	"C:\Hannah's FYP\White19_neu.jpg"	"romance"	"White"	"nose"	"Pos"	232	718	2	0	4	"Con"	6.57646956904822	6.57646956904822	718	NA	NA
2	90	"C:\Hannah's FYP\Black8_neu.jpg"	"success"	"Black"	"forehead"	"Pos"	112	935	2	0	4	"Incon"	6.84054652928869	6.84054652928869	935	NA	NA
2	91	"C:\Hannah's FYP\White6_neu.jpg"	"joy"	"White"	"forehead"	"Pos"	212	825	2	0	4	"Con"	6.71538338633468	6.71538338633468	825	NA	NA
2	92	"C:\Hannah's FYP\White18_neu.jpg"	"poison"	"White"	"nose"	"Neg"	231	1132	1	0	4	"Incon"	7.03174125876313	7.03174125876313	1132	NA	NA
2	93	"C:\Hannah's FYP\Black14_neu.jpg"	"disgust"	"Black"	"eyes"	"Neg"	121	918	1	0	4	"Con"	6.82219739062049	6.82219739062049	918	NA	NA
2	94	"C:\Hannah's FYP\White14_neu.jpg"	"beauty"	"White"	"eyes"	"Pos"	222	838	2	0	4	"Con"	6.73101810048208	6.73101810048208	838	NA	NA
2	95	"C:\Hannah's FYP\White8_neu.jpg"	"garbage"	"White"	"forehead"	"Neg"	211	1068	1	0	4	"Incon"	6.97354301952014	6.97354301952014	1068	NA	NA
2	96	"C:\Hannah's FYP\White7_neu.jpg"	"vacation"	"White"	"forehead"	"Pos"	212	665	2	0	4	"Con"	6.49978704065585	6.49978704065585	665	NA	NA
2	97	"C:\Hannah's FYP\White12_neu.jpg"	"disgust"	"White"	"eyes"	"Neg"	221	1431	1	0	4	"Incon"	7.26612877955645	7.26612877955645	1431	NA	NA
2	98	"C:\Hannah's FYP\White8_neu.jpg"	"despair"	"White"	"forehead"	"Neg"	211	764	1	0	4	"Incon"	6.63856778916652	6.63856778916652	764	NA	NA
2	99	"C:\Hannah's FYP\White19_neu.jpg"	"cockroach"	"White"	"nose"	"Neg"	231	739	1	0	4	"Incon"	6.6052979209482	6.6052979209482	739	NA	NA
2	100	"C:\Hannah's FYP\Black3_neu.jpg"	"joy"	"Black"	"forehead"	"Pos"	112	612	2	0	4	"Incon"	6.41673228251233	6.41673228251233	612	NA	NA
2	101	"C:\Hannah's FYP\Black1_neu.jpg"	"love"	"Black"	"forehead"	"Pos"	112	677	2	0	4	"Incon"	6.51767127291227	6.51767127291227	677	NA	NA
2	102	"C:\Hannah's FYP\White7_neu.jpg"	"sewage"	"White"	"forehead"	"Neg"	211	682	1	0	4	"Incon"	6.52502965784346	6.52502965784346	682	NA	NA
2	103	"C:\Hannah's FYP\White15_neu.jpg"	"smile"	"White"	"eyes"	"Pos"	222	528	2	0	4	"Con"	6.26909628370626	6.26909628370626	528	NA	NA
2	104	"C:\Hannah's FYP\White17_neu.jpg"	"love"	"White"	"nose"	"Pos"	232	580	2	0	4	"Con"	6.36302810354046	6.36302810354046	580	NA	NA
2	105	"C:\Hannah's FYP\Black3_neu.jpg"	"poison"	"Black"	"forehead"	"Neg"	111	852	1	0	4	"Con"	6.74758652682932	6.74758652682932	852	NA	NA
2	106	"C:\Hannah's FYP\White14_neu.jpg"	"love"	"White"	"eyes"	"Pos"	222	622	2	0	4	"Con"	6.43294009273918	6.43294009273918	622	NA	NA
2	107	"C:\Hannah's FYP\White21_neu.jpg"	"sewage"	"White"	"nose"	"Neg"	231	651	1	0	4	"Incon"	6.47850964220857	6.47850964220857	651	NA	NA
2	108	"C:\Hannah's FYP\Black3_neu.jpg"	"smile"	"Black"	"forehead"	"Pos"	112	639	2	0	4	"Incon"	6.45990445437753	6.45990445437753	639	NA	NA
2	109	"C:\Hannah's FYP\White4_neu.jpg"	"garbage"	"White"	"forehead"	"Neg"	211	622	1	0	4	"Incon"	6.43294009273918	6.43294009273918	622	NA	NA
2	110	"C:\Hannah's FYP\White6_neu.jpg"	"cockroach"	"White"	"forehead"	"Neg"	211	830	1	0	4	"Incon"	6.72142570079064	6.72142570079064	830	NA	NA
2	111	"C:\Hannah's FYP\Black13_neu.jpg"	"vomit"	"Black"	"eyes"	"Neg"	121	749	1	0	4	"Con"	6.61873898351722	6.61873898351722	749	NA	NA
2	112	"C:\Hannah's FYP\Black11_neu.jpg"	"success"	"Black"	"eyes"	"Pos"	122	711	2	0	4	"Incon"	6.56667242980324	6.56667242980324	711	NA	NA
2	113	"C:\Hannah's FYP\Black16_neu.jpg"	"love"	"Black"	"eyes"	"Pos"	122	643	2	0	4	"Incon"	6.46614472423762	6.46614472423762	643	NA	NA
2	114	"C:\Hannah's FYP\Black24_neu.jpg"	"romance"	"Black"	"nose"	"Pos"	132	607	2	0	4	"Incon"	6.4085287910595	6.4085287910595	607	NA	NA
2	115	"C:\Hannah's FYP\White17_neu.jpg"	"paradise"	"White"	"nose"	"Pos"	232	544	2	0	4	"Con"	6.29894924685594	6.29894924685594	544	NA	NA
2	116	"C:\Hannah's FYP\White20_neu.jpg"	"beauty"	"White"	"nose"	"Pos"	232	463	2	0	4	"Con"	6.13772705408623	6.13772705408623	463	NA	NA
2	117	"C:\Hannah's FYP\Black15_neu.jpg"	"joy"	"Black"	"eyes"	"Pos"	122	414	2	0	4	"Incon"	6.02586597382531	6.02586597382531	414	NA	NA
2	118	"C:\Hannah's FYP\Black11_neu.jpg"	"beauty"	"Black"	"eyes"	"Pos"	122	703	2	0	4	"Incon"	6.55535689181067	6.55535689181067	703	NA	NA
2	119	"C:\Hannah's FYP\White9_neu.jpg"	"romance"	"White"	"eyes"	"Pos"	222	603	2	0	4	"Con"	6.40191719672719	6.40191719672719	603	NA	NA
2	120	"C:\Hannah's FYP\Black9_neu.jpg"	"sewage"	"Black"	"eyes"	"Neg"	121	859	1	0	4	"Con"	6.75576892198425	6.75576892198425	859	NA	NA
2	121	"C:\Hannah's FYP\White7_neu.jpg"	"romance"	"White"	"forehead"	"Pos"	212	489	2	0	4	"Con"	6.19236248947487	6.19236248947487	489	NA	NA
2	122	"C:\Hannah's FYP\Black20_neu.jpg"	"romance"	"Black"	"nose"	"Pos"	132	650	2	0	4	"Incon"	6.47697236288968	6.47697236288968	650	NA	NA
2	123	"C:\Hannah's FYP\White10_neu.jpg"	"joy"	"White"	"eyes"	"Pos"	222	585	2	0	4	"Con"	6.37161184723186	6.37161184723186	585	NA	NA
2	124	"C:\Hannah's FYP\Black9_neu.jpg"	"joy"	"Black"	"eyes"	"Pos"	122	658	2	0	4	"Incon"	6.48920493132532	6.48920493132532	658	NA	NA
2	125	"C:\Hannah's FYP\White6_neu.jpg"	"love"	"White"	"forehead"	"Pos"	212	680	2	0	4	"Con"	6.52209279817015	6.52209279817015	680	NA	NA
2	126	"C:\Hannah's FYP\Black13_neu.jpg"	"sewage"	"Black"	"eyes"	"Neg"	121	614	1	0	4	"Con"	6.41999492814714	6.41999492814714	614	NA	NA
2	127	"C:\Hannah's FYP\White3_neu.jpg"	"success"	"White"	"forehead"	"Pos"	212	710	2	0	4	"Con"	6.56526497003536	6.56526497003536	710	NA	NA
2	128	"C:\Hannah's FYP\White14_neu.jpg"	"despair"	"White"	"eyes"	"Neg"	221	710	1	0	4	"Incon"	6.56526497003536	6.56526497003536	710	NA	NA
2	129	"C:\Hannah's FYP\Black13_neu.jpg"	"smile"	"Black"	"eyes"	"Pos"	122	650	2	0	4	"Incon"	6.47697236288968	6.47697236288968	650	NA	NA
2	130	"C:\Hannah's FYP\Black19_neu.jpg"	"beauty"	"Black"	"nose"	"Pos"	132	641	2	0	4	"Incon"	6.46302945692067	6.46302945692067	641	NA	NA
2	131	"C:\Hannah's FYP\Black22_neu.jpg"	"joy"	"Black"	"nose"	"Pos"	132	517	2	0	4	"Incon"	6.24804287450843	6.24804287450843	517	NA	NA
2	132	"C:\Hannah's FYP\Black18_neu.jpg"	"paradise"	"Black"	"nose"	"Pos"	132	601	2	0	4	"Incon"	6.39859493453521	6.39859493453521	601	NA	NA
2	133	"C:\Hannah's FYP\White15_neu.jpg"	"romance"	"White"	"eyes"	"Pos"	222	521	2	0	4	"Con"	6.25575004175337	6.25575004175337	521	NA	NA
2	134	"C:\Hannah's FYP\White17_neu.jpg"	"despair"	"White"	"nose"	"Neg"	231	717	1	0	4	"Incon"	6.57507584059962	6.57507584059962	717	NA	NA
2	135	"C:\Hannah's FYP\Black23_neu.jpg"	"garbage"	"Black"	"nose"	"Neg"	131	694	1	0	4	"Con"	6.5424719605068	6.5424719605068	694	NA	NA
2	136	"C:\Hannah's FYP\White14_neu.jpg"	"garbage"	"White"	"eyes"	"Neg"	221	1079	1	0	4	"Incon"	6.98378996525813	6.98378996525813	1079	NA	NA
2	137	"C:\Hannah's FYP\Black6_neu.jpg"	"paradise"	"Black"	"forehead"	"Pos"	112	771	2	0	4	"Incon"	6.64768837356333	6.64768837356333	771	NA	NA
2	138	"C:\Hannah's FYP\Black5_neu.jpg"	"vacation"	"Black"	"forehead"	"Pos"	112	900	2	0	4	"Incon"	6.80239476332431	6.80239476332431	900	NA	NA
2	139	"C:\Hannah's FYP\Black10_neu.jpg"	"pest"	"Black"	"eyes"	"Neg"	121	849	1	0	4	"Con"	6.74405918631135	6.74405918631135	849	NA	NA
2	140	"C:\Hannah's FYP\White11_neu.jpg"	"smile"	"White"	"eyes"	"Pos"	222	631	2	0	4	"Con"	6.44730586254121	6.44730586254121	631	NA	NA
2	141	"C:\Hannah's FYP\White10_neu.jpg"	"garbage"	"White"	"eyes"	"Neg"	221	654	1	0	4	"Incon"	6.4831073514572	6.4831073514572	654	NA	NA
2	142	"C:\Hannah's FYP\Black16_neu.jpg"	"pest"	"Black"	"eyes"	"Neg"	121	773	1	0	4	"Con"	6.65027904858742	6.65027904858742	773	NA	NA
2	143	"C:\Hannah's FYP\White3_neu.jpg"	"beauty"	"White"	"forehead"	"Pos"	212	878	2	0	4	"Con"	6.77764659363512	6.77764659363512	878	NA	NA
2	144	"C:\Hannah's FYP\Black8_neu.jpg"	"beauty"	"Black"	"forehead"	"Pos"	112	585	2	0	4	"Incon"	6.37161184723186	6.37161184723186	585	NA	NA
2	145	"C:\Hannah's FYP\Black14_neu.jpg"	"romance"	"Black"	"eyes"	"Pos"	122	650	2	0	4	"Incon"	6.47697236288968	6.47697236288968	650	NA	NA
2	146	"C:\Hannah's FYP\White23_neu.jpg"	"garbage"	"White"	"nose"	"Neg"	231	860	1	0	4	"Incon"	6.75693238924755	6.75693238924755	860	NA	NA
2	147	"C:\Hannah's FYP\White22_neu.jpg"	"smile"	"White"	"nose"	"Pos"	232	3218	2	0	4	"Con"	8.07651532755233	7.59369400871859	1944.57544831985	NA	NA
2	148	"C:\Hannah's FYP\White24_neu.jpg"	"vacation"	"White"	"nose"	"Pos"	232	818	2	0	4	"Con"	6.70686233660275	6.70686233660275	818	NA	NA
2	149	"C:\Hannah's FYP\White4_neu.jpg"	"poison"	"White"	"forehead"	"Neg"	211	737	1	0	4	"Incon"	6.60258789218934	6.60258789218934	737	NA	NA
2	150	"C:\Hannah's FYP\Black13_neu.jpg"	"vacation"	"Black"	"eyes"	"Pos"	122	756	2	0	4	"Incon"	6.62804137617953	6.62804137617953	756	NA	NA
2	151	"C:\Hannah's FYP\Black18_neu.jpg"	"success"	"Black"	"nose"	"Pos"	132	1806	2	0	4	"Incon"	7.49886973397693	7.49886973397693	1806	NA	NA
2	152	"C:\Hannah's FYP\White23_neu.jpg"	"romance"	"White"	"nose"	"Pos"	232	726	2	0	4	"Con"	6.5875500148248	6.5875500148248	726	NA	NA
2	153	"C:\Hannah's FYP\White22_neu.jpg"	"despair"	"White"	"nose"	"Neg"	231	889	1	0	4	"Incon"	6.7900972355139	6.7900972355139	889	NA	NA
2	154	"C:\Hannah's FYP\Black20_neu.jpg"	"garbage"	"Black"	"nose"	"Neg"	131	1289	1	0	4	"Con"	7.16162200293919	7.16162200293919	1289	NA	NA
2	155	"C:\Hannah's FYP\Black1_neu.jpg"	"garbage"	"Black"	"forehead"	"Neg"	111	708	1	0	4	"Con"	6.56244409369372	6.56244409369372	708	NA	NA
2	156	"C:\Hannah's FYP\White23_neu.jpg"	"love"	"White"	"nose"	"Pos"	232	828	2	0	4	"Con"	6.71901315438526	6.71901315438526	828	NA	NA
2	157	"C:\Hannah's FYP\White1_neu.jpg"	"vomit"	"White"	"forehead"	"Neg"	211	1099	1	0	4	"Incon"	7.00215595440362	7.00215595440362	1099	NA	NA
2	158	"C:\Hannah's FYP\Black15_neu.jpg"	"despair"	"Black"	"eyes"	"Neg"	121	1054	1	0	4	"Con"	6.96034772910131	6.96034772910131	1054	NA	NA
2	159	"C:\Hannah's FYP\White3_neu.jpg"	"sewage"	"White"	"forehead"	"Neg"	211	691	1	0	4	"Incon"	6.53813982376767	6.53813982376767	691	NA	NA
2	160	"C:\Hannah's FYP\White19_neu.jpg"	"success"	"White"	"nose"	"Pos"	232	901	2	0	4	"Con"	6.80350525760834	6.80350525760834	901	NA	NA
