"Block"	"Trial"	"FaceFilename"	"WordFilename"	"FaceRace"	"Fix"	"WordValence"	"Condition"	"RT"	"Key"	"Error"	"Subno"	"ParRace"	"ParGender"	"Congruent"	"logRT"	"logRT.winz"	"RT.winz"
2	1	"C:\Experiments\Bartholow Lab\Hannah Volpert\stimuli\Black8.jpg"	"paradise"	"Black"	"forehead"	"Pos"	112	889	5	0	101	"W"	"M"	"Incon"	6.7900972355139	6.7900972355139	889
2	2	"C:\Experiments\Bartholow Lab\Hannah Volpert\stimuli\Black24.jpg"	"poison"	"Black"	"forehead"	"Neg"	111	898	4	0	101	"W"	"M"	"Con"	6.8001700683022	6.8001700683022	898
2	3	"C:\Experiments\Bartholow Lab\Hannah Volpert\stimuli\White15.jpg"	"success"	"White"	"forehead"	"Pos"	212	750	5	0	101	"W"	"M"	"Con"	6.62007320653036	6.62007320653036	750
2	4	"C:\Experiments\Bartholow Lab\Hannah Volpert\stimuli\Black16.jpg"	"disgust"	"Black"	"nose"	"Neg"	131	748	4	0	101	"W"	"M"	"Con"	6.61740297797448	6.61740297797448	748
2	5	"C:\Experiments\Bartholow Lab\Hannah Volpert\stimuli\White19.jpg"	"vomit"	"White"	"forehead"	"Neg"	211	1000	4	0	101	"W"	"M"	"Incon"	6.90775527898214	6.90775527898214	1000
2	6	"C:\Experiments\Bartholow Lab\Hannah Volpert\stimuli\White17.jpg"	"cockroach"	"White"	"eyes"	"Neg"	221	1049	4	0	101	"W"	"M"	"Incon"	6.9555926083963	6.9555926083963	1044.03722510848
2	7	"C:\Experiments\Bartholow Lab\Hannah Volpert\stimuli\Black12.jpg"	"despair"	"Black"	"eyes"	"Neg"	121	773	4	0	101	"W"	"M"	"Con"	6.65027904858742	6.65027904858742	773
2	8	"C:\Experiments\Bartholow Lab\Hannah Volpert\stimuli\White14.jpg"	"pest"	"White"	"nose"	"Neg"	231	779	4	0	101	"W"	"M"	"Incon"	6.65801104587075	6.65801104587075	779
2	9	"C:\Experiments\Bartholow Lab\Hannah Volpert\stimuli\White24.jpg"	"vacation"	"White"	"eyes"	"Pos"	222	921	5	0	101	"W"	"M"	"Con"	6.82546003625531	6.82546003625531	921
2	10	"C:\Experiments\Bartholow Lab\Hannah Volpert\stimuli\White16.jpg"	"romance"	"White"	"forehead"	"Pos"	212	728	5	0	101	"W"	"M"	"Con"	6.59030104819669	6.59030104819669	728
2	11	"C:\Experiments\Bartholow Lab\Hannah Volpert\stimuli\White14.jpg"	"beauty"	"White"	"eyes"	"Pos"	222	723	5	0	101	"W"	"M"	"Con"	6.58340922215876	6.58340922215876	723
2	12	"C:\Experiments\Bartholow Lab\Hannah Volpert\stimuli\White11.jpg"	"vomit"	"White"	"forehead"	"Neg"	211	588	4	0	101	"W"	"M"	"Incon"	6.37672694789863	6.37672694789863	588
2	13	"C:\Experiments\Bartholow Lab\Hannah Volpert\stimuli\Black3.jpg"	"smile"	"Black"	"forehead"	"Pos"	112	578	5	0	101	"W"	"M"	"Incon"	6.35957386867238	6.35957386867238	578
2	14	"C:\Experiments\Bartholow Lab\Hannah Volpert\stimuli\White11.jpg"	"beauty"	"White"	"eyes"	"Pos"	222	569	5	0	101	"W"	"M"	"Con"	6.34388043412633	6.34388043412633	569
2	15	"C:\Experiments\Bartholow Lab\Hannah Volpert\stimuli\White24.jpg"	"pest"	"White"	"nose"	"Neg"	231	948	4	0	101	"W"	"M"	"Incon"	6.85435450225502	6.85435450225502	948
2	16	"C:\Experiments\Bartholow Lab\Hannah Volpert\stimuli\White13.jpg"	"smile"	"White"	"forehead"	"Pos"	212	677	5	0	101	"W"	"M"	"Con"	6.51767127291227	6.51767127291227	677
2	17	"C:\Experiments\Bartholow Lab\Hannah Volpert\stimuli\Black16.jpg"	"romance"	"Black"	"eyes"	"Pos"	122	510	5	0	101	"W"	"M"	"Incon"	6.23441072571837	6.23441072571837	510
2	18	"C:\Experiments\Bartholow Lab\Hannah Volpert\stimuli\White2.jpg"	"love"	"White"	"forehead"	"Pos"	212	535	5	0	101	"W"	"M"	"Con"	6.28226674689601	6.28226674689601	535
2	19	"C:\Experiments\Bartholow Lab\Hannah Volpert\stimuli\Black4.jpg"	"disgust"	"Black"	"forehead"	"Neg"	111	555	4	0	101	"W"	"M"	"Con"	6.31896811374643	6.31896811374643	555
2	20	"C:\Experiments\Bartholow Lab\Hannah Volpert\stimuli\White9.jpg"	"romance"	"White"	"eyes"	"Pos"	222	606	5	0	101	"W"	"M"	"Con"	6.40687998606931	6.40687998606931	606
2	21	"C:\Experiments\Bartholow Lab\Hannah Volpert\stimuli\White1.jpg"	"smile"	"White"	"nose"	"Pos"	232	589	5	0	101	"W"	"M"	"Con"	6.37842618365159	6.37842618365159	589
2	22	"C:\Experiments\Bartholow Lab\Hannah Volpert\stimuli\White2.jpg"	"despair"	"White"	"nose"	"Neg"	231	741	4	0	101	"W"	"M"	"Incon"	6.60800062529609	6.60800062529609	741
2	23	"C:\Experiments\Bartholow Lab\Hannah Volpert\stimuli\White21.jpg"	"poison"	"White"	"forehead"	"Neg"	211	721	4	0	101	"W"	"M"	"Incon"	6.58063913728495	6.58063913728495	721
2	24	"C:\Experiments\Bartholow Lab\Hannah Volpert\stimuli\White20.jpg"	"paradise"	"White"	"eyes"	"Pos"	222	655	5	0	101	"W"	"M"	"Con"	6.48463523563525	6.48463523563525	655
2	25	"C:\Experiments\Bartholow Lab\Hannah Volpert\stimuli\Black15.jpg"	"smile"	"Black"	"forehead"	"Pos"	112	566	5	0	101	"W"	"M"	"Incon"	6.33859407820318	6.33859407820318	566
2	26	"C:\Experiments\Bartholow Lab\Hannah Volpert\stimuli\White22.jpg"	"vomit"	"White"	"nose"	"Neg"	231	550	5	1	101	"W"	"M"	"Incon"	6.30991827822652	6.30991827822652	550
2	27	"C:\Experiments\Bartholow Lab\Hannah Volpert\stimuli\Black3.jpg"	"smile"	"Black"	"nose"	"Pos"	132	1074	5	0	101	"W"	"M"	"Incon"	6.97914527506881	6.97914527506881	1044.03722510848
2	28	"C:\Experiments\Bartholow Lab\Hannah Volpert\stimuli\Black21.jpg"	"smile"	"Black"	"eyes"	"Pos"	122	643	5	0	101	"W"	"M"	"Incon"	6.46614472423762	6.46614472423762	643
2	29	"C:\Experiments\Bartholow Lab\Hannah Volpert\stimuli\Black22.jpg"	"paradise"	"Black"	"eyes"	"Pos"	122	633	5	0	101	"W"	"M"	"Incon"	6.45047042214418	6.45047042214418	633
2	30	"C:\Experiments\Bartholow Lab\Hannah Volpert\stimuli\White12.jpg"	"sewage"	"White"	"forehead"	"Neg"	211	762	4	0	101	"W"	"M"	"Incon"	6.63594655568665	6.63594655568665	762
2	31	"C:\Experiments\Bartholow Lab\Hannah Volpert\stimuli\Black13.jpg"	"paradise"	"Black"	"eyes"	"Pos"	122	600	5	0	101	"W"	"M"	"Incon"	6.39692965521615	6.39692965521615	600
2	32	"C:\Experiments\Bartholow Lab\Hannah Volpert\stimuli\White16.jpg"	"garbage"	"White"	"forehead"	"Neg"	211	836	4	0	101	"W"	"M"	"Incon"	6.7286286130847	6.7286286130847	836
2	33	"C:\Experiments\Bartholow Lab\Hannah Volpert\stimuli\White12.jpg"	"disgust"	"White"	"nose"	"Neg"	231	669	4	0	101	"W"	"M"	"Incon"	6.50578406012823	6.50578406012823	669
2	34	"C:\Experiments\Bartholow Lab\Hannah Volpert\stimuli\Black1.jpg"	"paradise"	"Black"	"forehead"	"Pos"	112	1571	5	0	101	"W"	"M"	"Incon"	7.35946763825562	6.9944442215513	1044.03722510848
2	35	"C:\Experiments\Bartholow Lab\Hannah Volpert\stimuli\Black23.jpg"	"joy"	"Black"	"eyes"	"Pos"	122	642	5	0	101	"W"	"M"	"Incon"	6.46458830368996	6.46458830368996	642
2	36	"C:\Experiments\Bartholow Lab\Hannah Volpert\stimuli\Black1.jpg"	"despair"	"Black"	"eyes"	"Neg"	121	576	4	0	101	"W"	"M"	"Con"	6.35610766069589	6.35610766069589	576
2	37	"C:\Experiments\Bartholow Lab\Hannah Volpert\stimuli\White3.jpg"	"disgust"	"White"	"forehead"	"Neg"	211	582	4	0	101	"W"	"M"	"Incon"	6.36647044773144	6.36647044773144	582
2	38	"C:\Experiments\Bartholow Lab\Hannah Volpert\stimuli\Black6.jpg"	"garbage"	"Black"	"eyes"	"Neg"	121	751	4	0	101	"W"	"M"	"Con"	6.62140565176413	6.62140565176413	751
2	39	"C:\Experiments\Bartholow Lab\Hannah Volpert\stimuli\Black2.jpg"	"vacation"	"Black"	"eyes"	"Pos"	122	635	5	0	101	"W"	"M"	"Incon"	6.45362499889269	6.45362499889269	635
2	40	"C:\Experiments\Bartholow Lab\Hannah Volpert\stimuli\Black13.jpg"	"garbage"	"Black"	"eyes"	"Neg"	121	686	4	0	101	"W"	"M"	"Con"	6.53087762772588	6.53087762772588	686
2	41	"C:\Experiments\Bartholow Lab\Hannah Volpert\stimuli\White23.jpg"	"success"	"White"	"eyes"	"Pos"	222	516	5	0	101	"W"	"M"	"Con"	6.24610676548156	6.24610676548156	516
2	42	"C:\Experiments\Bartholow Lab\Hannah Volpert\stimuli\White10.jpg"	"disgust"	"White"	"forehead"	"Neg"	211	768	4	0	101	"W"	"M"	"Incon"	6.64378973314767	6.64378973314767	768
2	43	"C:\Experiments\Bartholow Lab\Hannah Volpert\stimuli\White2.jpg"	"paradise"	"White"	"eyes"	"Pos"	222	681	5	0	101	"W"	"M"	"Con"	6.52356230614951	6.52356230614951	681
2	44	"C:\Experiments\Bartholow Lab\Hannah Volpert\stimuli\Black11.jpg"	"success"	"Black"	"nose"	"Pos"	132	594	5	0	101	"W"	"M"	"Incon"	6.38687931936265	6.38687931936265	594
2	45	"C:\Experiments\Bartholow Lab\Hannah Volpert\stimuli\White10.jpg"	"garbage"	"White"	"nose"	"Neg"	231	651	4	0	101	"W"	"M"	"Incon"	6.47850964220857	6.47850964220857	651
2	46	"C:\Experiments\Bartholow Lab\Hannah Volpert\stimuli\Black16.jpg"	"cockroach"	"Black"	"eyes"	"Neg"	121	622	4	0	101	"W"	"M"	"Con"	6.43294009273918	6.43294009273918	622
2	47	"C:\Experiments\Bartholow Lab\Hannah Volpert\stimuli\White17.jpg"	"love"	"White"	"eyes"	"Pos"	222	559	5	0	101	"W"	"M"	"Con"	6.3261494731551	6.3261494731551	559
2	48	"C:\Experiments\Bartholow Lab\Hannah Volpert\stimuli\White19.jpg"	"romance"	"White"	"forehead"	"Pos"	212	565	5	0	101	"W"	"M"	"Con"	6.33682573114644	6.33682573114644	565
2	49	"C:\Experiments\Bartholow Lab\Hannah Volpert\stimuli\White8.jpg"	"beauty"	"White"	"forehead"	"Pos"	212	556	5	0	101	"W"	"M"	"Con"	6.32076829425058	6.32076829425058	556
2	50	"C:\Experiments\Bartholow Lab\Hannah Volpert\stimuli\Black15.jpg"	"despair"	"Black"	"eyes"	"Neg"	121	557	4	0	101	"W"	"M"	"Con"	6.32256523992728	6.32256523992728	557
2	51	"C:\Experiments\Bartholow Lab\Hannah Volpert\stimuli\Black17.jpg"	"paradise"	"Black"	"nose"	"Pos"	132	539	5	0	101	"W"	"M"	"Incon"	6.289715570909	6.289715570909	539
2	52	"C:\Experiments\Bartholow Lab\Hannah Volpert\stimuli\White23.jpg"	"poison"	"White"	"forehead"	"Neg"	211	593	4	0	101	"W"	"M"	"Incon"	6.38519439899773	6.38519439899773	593
2	53	"C:\Experiments\Bartholow Lab\Hannah Volpert\stimuli\Black4.jpg"	"pest"	"Black"	"eyes"	"Neg"	121	717	4	0	101	"W"	"M"	"Con"	6.57507584059962	6.57507584059962	717
2	54	"C:\Experiments\Bartholow Lab\Hannah Volpert\stimuli\Black9.jpg"	"garbage"	"Black"	"forehead"	"Neg"	111	608	4	0	101	"W"	"M"	"Con"	6.41017488196617	6.41017488196617	608
2	55	"C:\Experiments\Bartholow Lab\Hannah Volpert\stimuli\White7.jpg"	"poison"	"White"	"forehead"	"Neg"	211	670	4	0	101	"W"	"M"	"Incon"	6.50727771238501	6.50727771238501	670
2	56	"C:\Experiments\Bartholow Lab\Hannah Volpert\stimuli\Black10.jpg"	"beauty"	"Black"	"nose"	"Pos"	132	826	5	0	101	"W"	"M"	"Incon"	6.71659477352098	6.71659477352098	826
2	57	"C:\Experiments\Bartholow Lab\Hannah Volpert\stimuli\White16.jpg"	"joy"	"White"	"eyes"	"Pos"	222	563	5	0	101	"W"	"M"	"Con"	6.33327962813969	6.33327962813969	563
2	58	"C:\Experiments\Bartholow Lab\Hannah Volpert\stimuli\White7.jpg"	"disgust"	"White"	"eyes"	"Neg"	221	777	4	0	101	"W"	"M"	"Incon"	6.65544035036765	6.65544035036765	777
2	59	"C:\Experiments\Bartholow Lab\Hannah Volpert\stimuli\White6.jpg"	"joy"	"White"	"eyes"	"Pos"	222	522	5	0	101	"W"	"M"	"Con"	6.25766758788264	6.25766758788264	522
2	60	"C:\Experiments\Bartholow Lab\Hannah Volpert\stimuli\Black19.jpg"	"vacation"	"Black"	"eyes"	"Pos"	122	517	5	0	101	"W"	"M"	"Incon"	6.24804287450843	6.24804287450843	517
2	61	"C:\Experiments\Bartholow Lab\Hannah Volpert\stimuli\Black23.jpg"	"cockroach"	"Black"	"forehead"	"Neg"	111	510	4	0	101	"W"	"M"	"Con"	6.23441072571837	6.23441072571837	510
2	62	"C:\Experiments\Bartholow Lab\Hannah Volpert\stimuli\White18.jpg"	"beauty"	"White"	"eyes"	"Pos"	222	541	5	0	101	"W"	"M"	"Con"	6.29341927884648	6.29341927884648	541
2	63	"C:\Experiments\Bartholow Lab\Hannah Volpert\stimuli\Black7.jpg"	"vacation"	"Black"	"nose"	"Pos"	132	475	5	0	101	"W"	"M"	"Incon"	6.16331480403464	6.16331480403464	475
2	64	"C:\Experiments\Bartholow Lab\Hannah Volpert\stimuli\Black14.jpg"	"vacation"	"Black"	"nose"	"Pos"	132	604	5	0	101	"W"	"M"	"Incon"	6.40357419793482	6.40357419793482	604
2	65	"C:\Experiments\Bartholow Lab\Hannah Volpert\stimuli\Black1.jpg"	"love"	"Black"	"nose"	"Pos"	132	514	5	0	101	"W"	"M"	"Incon"	6.24222326545517	6.24222326545517	514
2	66	"C:\Experiments\Bartholow Lab\Hannah Volpert\stimuli\Black20.jpg"	"sewage"	"Black"	"nose"	"Neg"	131	736	4	0	101	"W"	"M"	"Con"	6.60123011872888	6.60123011872888	736
2	67	"C:\Experiments\Bartholow Lab\Hannah Volpert\stimuli\White13.jpg"	"joy"	"White"	"eyes"	"Pos"	222	521	5	0	101	"W"	"M"	"Con"	6.25575004175337	6.25575004175337	521
2	68	"C:\Experiments\Bartholow Lab\Hannah Volpert\stimuli\Black10.jpg"	"vacation"	"Black"	"eyes"	"Pos"	122	773	5	0	101	"W"	"M"	"Incon"	6.65027904858742	6.65027904858742	773
2	69	"C:\Experiments\Bartholow Lab\Hannah Volpert\stimuli\White4.jpg"	"romance"	"White"	"eyes"	"Pos"	222	533	5	0	101	"W"	"M"	"Con"	6.27852142416584	6.27852142416584	533
2	70	"C:\Experiments\Bartholow Lab\Hannah Volpert\stimuli\White11.jpg"	"paradise"	"White"	"nose"	"Pos"	232	580	5	0	101	"W"	"M"	"Con"	6.36302810354046	6.36302810354046	580
2	71	"C:\Experiments\Bartholow Lab\Hannah Volpert\stimuli\White2.jpg"	"pest"	"White"	"eyes"	"Neg"	221	554	4	0	101	"W"	"M"	"Incon"	6.31716468674728	6.31716468674728	554
2	72	"C:\Experiments\Bartholow Lab\Hannah Volpert\stimuli\White6.jpg"	"poison"	"White"	"forehead"	"Neg"	211	747	4	0	101	"W"	"M"	"Incon"	6.61606518513282	6.61606518513282	747
2	73	"C:\Experiments\Bartholow Lab\Hannah Volpert\stimuli\White18.jpg"	"despair"	"White"	"eyes"	"Neg"	221	715	4	0	101	"W"	"M"	"Incon"	6.57228254269401	6.57228254269401	715
2	74	"C:\Experiments\Bartholow Lab\Hannah Volpert\stimuli\White4.jpg"	"smile"	"White"	"nose"	"Pos"	232	508	5	0	101	"W"	"M"	"Con"	6.23048144757848	6.23048144757848	508
2	75	"C:\Experiments\Bartholow Lab\Hannah Volpert\stimuli\White7.jpg"	"cockroach"	"White"	"nose"	"Neg"	231	581	4	0	101	"W"	"M"	"Incon"	6.36475075685191	6.36475075685191	581
2	76	"C:\Experiments\Bartholow Lab\Hannah Volpert\stimuli\Black7.jpg"	"poison"	"Black"	"forehead"	"Neg"	111	747	4	0	101	"W"	"M"	"Con"	6.61606518513282	6.61606518513282	747
2	77	"C:\Experiments\Bartholow Lab\Hannah Volpert\stimuli\Black14.jpg"	"vacation"	"Black"	"forehead"	"Pos"	112	583	5	0	101	"W"	"M"	"Incon"	6.36818718635049	6.36818718635049	583
2	78	"C:\Experiments\Bartholow Lab\Hannah Volpert\stimuli\Black16.jpg"	"sewage"	"Black"	"forehead"	"Neg"	111	605	4	0	101	"W"	"M"	"Con"	6.40522845803084	6.40522845803084	605
2	79	"C:\Experiments\Bartholow Lab\Hannah Volpert\stimuli\Black22.jpg"	"pest"	"Black"	"forehead"	"Neg"	111	601	4	0	101	"W"	"M"	"Con"	6.39859493453521	6.39859493453521	601
2	80	"C:\Experiments\Bartholow Lab\Hannah Volpert\stimuli\Black17.jpg"	"poison"	"Black"	"eyes"	"Neg"	121	498	4	0	101	"W"	"M"	"Con"	6.21060007702465	6.21060007702465	498
2	81	"C:\Experiments\Bartholow Lab\Hannah Volpert\stimuli\Black19.jpg"	"vacation"	"Black"	"nose"	"Pos"	132	552	5	0	101	"W"	"M"	"Incon"	6.31354804627709	6.31354804627709	552
2	82	"C:\Experiments\Bartholow Lab\Hannah Volpert\stimuli\White6.jpg"	"vomit"	"White"	"eyes"	"Neg"	221	681	4	0	101	"W"	"M"	"Incon"	6.52356230614951	6.52356230614951	681
2	83	"C:\Experiments\Bartholow Lab\Hannah Volpert\stimuli\Black12.jpg"	"pest"	"Black"	"forehead"	"Neg"	111	532	4	0	101	"W"	"M"	"Con"	6.27664348934164	6.27664348934164	532
2	84	"C:\Experiments\Bartholow Lab\Hannah Volpert\stimuli\White21.jpg"	"cockroach"	"White"	"eyes"	"Neg"	221	501	4	0	101	"W"	"M"	"Incon"	6.21660610108486	6.21660610108486	501
2	85	"C:\Experiments\Bartholow Lab\Hannah Volpert\stimuli\Black6.jpg"	"poison"	"Black"	"forehead"	"Neg"	111	553	4	0	101	"W"	"M"	"Con"	6.31535800152233	6.31535800152233	553
2	86	"C:\Experiments\Bartholow Lab\Hannah Volpert\stimuli\White23.jpg"	"despair"	"White"	"nose"	"Neg"	231	737	4	0	101	"W"	"M"	"Incon"	6.60258789218934	6.60258789218934	737
2	87	"C:\Experiments\Bartholow Lab\Hannah Volpert\stimuli\Black24.jpg"	"vacation"	"Black"	"forehead"	"Pos"	112	573	5	0	101	"W"	"M"	"Incon"	6.35088571671474	6.35088571671474	573
2	88	"C:\Experiments\Bartholow Lab\Hannah Volpert\stimuli\Black2.jpg"	"disgust"	"Black"	"nose"	"Neg"	131	547	4	0	101	"W"	"M"	"Con"	6.30444880242198	6.30444880242198	547
2	89	"C:\Experiments\Bartholow Lab\Hannah Volpert\stimuli\White22.jpg"	"paradise"	"White"	"nose"	"Pos"	232	756	5	0	101	"W"	"M"	"Con"	6.62804137617953	6.62804137617953	756
2	90	"C:\Experiments\Bartholow Lab\Hannah Volpert\stimuli\White15.jpg"	"despair"	"White"	"eyes"	"Neg"	221	589	4	0	101	"W"	"M"	"Incon"	6.37842618365159	6.37842618365159	589
2	91	"C:\Experiments\Bartholow Lab\Hannah Volpert\stimuli\White15.jpg"	"disgust"	"White"	"forehead"	"Neg"	211	534	4	0	101	"W"	"M"	"Incon"	6.2803958389602	6.2803958389602	534
2	92	"C:\Experiments\Bartholow Lab\Hannah Volpert\stimuli\Black7.jpg"	"sewage"	"Black"	"eyes"	"Neg"	121	612	4	0	101	"W"	"M"	"Con"	6.41673228251233	6.41673228251233	612
2	93	"C:\Experiments\Bartholow Lab\Hannah Volpert\stimuli\Black13.jpg"	"sewage"	"Black"	"nose"	"Neg"	131	578	4	0	101	"W"	"M"	"Con"	6.35957386867238	6.35957386867238	578
2	94	"C:\Experiments\Bartholow Lab\Hannah Volpert\stimuli\White12.jpg"	"beauty"	"White"	"forehead"	"Pos"	212	505	5	0	101	"W"	"M"	"Con"	6.22455842927536	6.22455842927536	505
2	95	"C:\Experiments\Bartholow Lab\Hannah Volpert\stimuli\Black12.jpg"	"vomit"	"Black"	"nose"	"Neg"	131	495	5	1	101	"W"	"M"	"Con"	6.20455776256869	6.20455776256869	495
2	96	"C:\Experiments\Bartholow Lab\Hannah Volpert\stimuli\Black1.jpg"	"vomit"	"Black"	"forehead"	"Neg"	111	962	4	0	101	"W"	"M"	"Con"	6.86901445066571	6.86901445066571	962
2	97	"C:\Experiments\Bartholow Lab\Hannah Volpert\stimuli\White23.jpg"	"garbage"	"White"	"eyes"	"Neg"	221	574	4	0	101	"W"	"M"	"Incon"	6.35262939631957	6.35262939631957	574
2	98	"C:\Experiments\Bartholow Lab\Hannah Volpert\stimuli\Black11.jpg"	"disgust"	"Black"	"nose"	"Neg"	131	527	4	0	101	"W"	"M"	"Con"	6.26720054854136	6.26720054854136	527
2	99	"C:\Experiments\Bartholow Lab\Hannah Volpert\stimuli\Black5.jpg"	"vacation"	"Black"	"eyes"	"Pos"	122	685	5	0	101	"W"	"M"	"Incon"	6.52941883826223	6.52941883826223	685
2	100	"C:\Experiments\Bartholow Lab\Hannah Volpert\stimuli\Black21.jpg"	"poison"	"Black"	"forehead"	"Neg"	111	574	4	0	101	"W"	"M"	"Con"	6.35262939631957	6.35262939631957	574
2	101	"C:\Experiments\Bartholow Lab\Hannah Volpert\stimuli\Black8.jpg"	"success"	"Black"	"nose"	"Pos"	132	788	5	0	101	"W"	"M"	"Incon"	6.66949808985788	6.66949808985788	788
2	102	"C:\Experiments\Bartholow Lab\Hannah Volpert\stimuli\Black18.jpg"	"vomit"	"Black"	"nose"	"Neg"	131	629	4	0	101	"W"	"M"	"Con"	6.44413125670044	6.44413125670044	629
2	103	"C:\Experiments\Bartholow Lab\Hannah Volpert\stimuli\White19.jpg"	"success"	"White"	"eyes"	"Pos"	222	953	5	0	101	"W"	"M"	"Con"	6.8596149036542	6.8596149036542	953
2	104	"C:\Experiments\Bartholow Lab\Hannah Volpert\stimuli\White22.jpg"	"cockroach"	"White"	"eyes"	"Neg"	221	650	4	0	101	"W"	"M"	"Incon"	6.47697236288968	6.47697236288968	650
2	105	"C:\Experiments\Bartholow Lab\Hannah Volpert\stimuli\White13.jpg"	"cockroach"	"White"	"forehead"	"Neg"	211	651	4	0	101	"W"	"M"	"Incon"	6.47850964220857	6.47850964220857	651
2	106	"C:\Experiments\Bartholow Lab\Hannah Volpert\stimuli\White21.jpg"	"vomit"	"White"	"nose"	"Neg"	231	580	4	0	101	"W"	"M"	"Incon"	6.36302810354046	6.36302810354046	580
2	107	"C:\Experiments\Bartholow Lab\Hannah Volpert\stimuli\White24.jpg"	"sewage"	"White"	"forehead"	"Neg"	211	682	4	0	101	"W"	"M"	"Incon"	6.52502965784346	6.52502965784346	682
2	108	"C:\Experiments\Bartholow Lab\Hannah Volpert\stimuli\White18.jpg"	"smile"	"White"	"forehead"	"Pos"	212	747	5	0	101	"W"	"M"	"Con"	6.61606518513282	6.61606518513282	747
2	109	"C:\Experiments\Bartholow Lab\Hannah Volpert\stimuli\Black7.jpg"	"smile"	"Black"	"eyes"	"Pos"	122	516	5	0	101	"W"	"M"	"Incon"	6.24610676548156	6.24610676548156	516
2	110	"C:\Experiments\Bartholow Lab\Hannah Volpert\stimuli\Black11.jpg"	"success"	"Black"	"eyes"	"Pos"	122	599	5	0	101	"W"	"M"	"Incon"	6.39526159811545	6.39526159811545	599
2	111	"C:\Experiments\Bartholow Lab\Hannah Volpert\stimuli\White7.jpg"	"success"	"White"	"nose"	"Pos"	232	691	5	0	101	"W"	"M"	"Con"	6.53813982376767	6.53813982376767	691
2	112	"C:\Experiments\Bartholow Lab\Hannah Volpert\stimuli\White10.jpg"	"joy"	"White"	"nose"	"Pos"	232	590	5	0	101	"W"	"M"	"Con"	6.38012253689976	6.38012253689976	590
2	113	"C:\Experiments\Bartholow Lab\Hannah Volpert\stimuli\Black1.jpg"	"romance"	"Black"	"eyes"	"Pos"	122	594	5	0	101	"W"	"M"	"Incon"	6.38687931936265	6.38687931936265	594
2	114	"C:\Experiments\Bartholow Lab\Hannah Volpert\stimuli\White15.jpg"	"vomit"	"White"	"nose"	"Neg"	231	683	4	0	101	"W"	"M"	"Incon"	6.52649485957079	6.52649485957079	683
2	115	"C:\Experiments\Bartholow Lab\Hannah Volpert\stimuli\Black19.jpg"	"disgust"	"Black"	"eyes"	"Neg"	121	966	4	0	101	"W"	"M"	"Con"	6.87316383421252	6.87316383421252	966
2	116	"C:\Experiments\Bartholow Lab\Hannah Volpert\stimuli\White3.jpg"	"garbage"	"White"	"eyes"	"Neg"	221	970	4	0	101	"W"	"M"	"Incon"	6.87729607149743	6.87729607149743	970
2	117	"C:\Experiments\Bartholow Lab\Hannah Volpert\stimuli\White15.jpg"	"love"	"White"	"eyes"	"Pos"	222	606	5	0	101	"W"	"M"	"Con"	6.40687998606931	6.40687998606931	606
2	118	"C:\Experiments\Bartholow Lab\Hannah Volpert\stimuli\White5.jpg"	"beauty"	"White"	"nose"	"Pos"	232	556	5	0	101	"W"	"M"	"Con"	6.32076829425058	6.32076829425058	556
2	119	"C:\Experiments\Bartholow Lab\Hannah Volpert\stimuli\Black4.jpg"	"romance"	"Black"	"nose"	"Pos"	132	639	5	0	101	"W"	"M"	"Incon"	6.45990445437753	6.45990445437753	639
2	120	"C:\Experiments\Bartholow Lab\Hannah Volpert\stimuli\Black3.jpg"	"joy"	"Black"	"eyes"	"Pos"	122	494	5	0	101	"W"	"M"	"Incon"	6.20253551718792	6.20253551718792	494
2	121	"C:\Experiments\Bartholow Lab\Hannah Volpert\stimuli\Black3.jpg"	"sewage"	"Black"	"nose"	"Neg"	131	663	4	0	101	"W"	"M"	"Con"	6.49677499018586	6.49677499018586	663
2	122	"C:\Experiments\Bartholow Lab\Hannah Volpert\stimuli\White10.jpg"	"paradise"	"White"	"forehead"	"Pos"	212	733	5	0	101	"W"	"M"	"Con"	6.59714570188665	6.59714570188665	733
2	123	"C:\Experiments\Bartholow Lab\Hannah Volpert\stimuli\Black20.jpg"	"paradise"	"Black"	"nose"	"Pos"	132	822	5	0	101	"W"	"M"	"Incon"	6.71174039505618	6.71174039505618	822
2	124	"C:\Experiments\Bartholow Lab\Hannah Volpert\stimuli\Black24.jpg"	"romance"	"Black"	"nose"	"Pos"	132	639	5	0	101	"W"	"M"	"Incon"	6.45990445437753	6.45990445437753	639
2	125	"C:\Experiments\Bartholow Lab\Hannah Volpert\stimuli\Black9.jpg"	"love"	"Black"	"forehead"	"Pos"	112	608	5	0	101	"W"	"M"	"Incon"	6.41017488196617	6.41017488196617	608
2	126	"C:\Experiments\Bartholow Lab\Hannah Volpert\stimuli\White5.jpg"	"sewage"	"White"	"eyes"	"Neg"	221	524	4	0	101	"W"	"M"	"Incon"	6.26149168432104	6.26149168432104	524
2	127	"C:\Experiments\Bartholow Lab\Hannah Volpert\stimuli\Black24.jpg"	"despair"	"Black"	"eyes"	"Neg"	121	602	4	0	101	"W"	"M"	"Con"	6.40025744530882	6.40025744530882	602
2	128	"C:\Experiments\Bartholow Lab\Hannah Volpert\stimuli\Black6.jpg"	"success"	"Black"	"forehead"	"Pos"	112	565	5	0	101	"W"	"M"	"Incon"	6.33682573114644	6.33682573114644	565
2	129	"C:\Experiments\Bartholow Lab\Hannah Volpert\stimuli\Black17.jpg"	"pest"	"Black"	"nose"	"Neg"	131	582	4	0	101	"W"	"M"	"Con"	6.36647044773144	6.36647044773144	582
2	130	"C:\Experiments\Bartholow Lab\Hannah Volpert\stimuli\Black2.jpg"	"beauty"	"Black"	"nose"	"Pos"	132	604	5	0	101	"W"	"M"	"Incon"	6.40357419793482	6.40357419793482	604
2	131	"C:\Experiments\Bartholow Lab\Hannah Volpert\stimuli\Black16.jpg"	"paradise"	"Black"	"nose"	"Pos"	132	635	5	0	101	"W"	"M"	"Incon"	6.45362499889269	6.45362499889269	635
2	132	"C:\Experiments\Bartholow Lab\Hannah Volpert\stimuli\White4.jpg"	"pest"	"White"	"forehead"	"Neg"	211	612	4	0	101	"W"	"M"	"Incon"	6.41673228251233	6.41673228251233	612
2	133	"C:\Experiments\Bartholow Lab\Hannah Volpert\stimuli\White17.jpg"	"paradise"	"White"	"nose"	"Pos"	232	562	5	0	101	"W"	"M"	"Con"	6.33150184989369	6.33150184989369	562
2	134	"C:\Experiments\Bartholow Lab\Hannah Volpert\stimuli\Black9.jpg"	"romance"	"Black"	"nose"	"Pos"	132	566	5	0	101	"W"	"M"	"Incon"	6.33859407820318	6.33859407820318	566
2	135	"C:\Experiments\Bartholow Lab\Hannah Volpert\stimuli\White11.jpg"	"pest"	"White"	"eyes"	"Neg"	221	620	4	0	101	"W"	"M"	"Incon"	6.42971947803914	6.42971947803914	620
2	136	"C:\Experiments\Bartholow Lab\Hannah Volpert\stimuli\White14.jpg"	"poison"	"White"	"eyes"	"Neg"	221	655	4	0	101	"W"	"M"	"Incon"	6.48463523563525	6.48463523563525	655
2	137	"C:\Experiments\Bartholow Lab\Hannah Volpert\stimuli\White12.jpg"	"love"	"White"	"eyes"	"Pos"	222	710	5	0	101	"W"	"M"	"Con"	6.56526497003536	6.56526497003536	710
2	138	"C:\Experiments\Bartholow Lab\Hannah Volpert\stimuli\Black5.jpg"	"vomit"	"Black"	"nose"	"Neg"	131	615	4	0	101	"W"	"M"	"Con"	6.42162226780652	6.42162226780652	615
2	139	"C:\Experiments\Bartholow Lab\Hannah Volpert\stimuli\Black2.jpg"	"pest"	"Black"	"forehead"	"Neg"	111	837	4	0	101	"W"	"M"	"Con"	6.72982407048948	6.72982407048948	837
2	140	"C:\Experiments\Bartholow Lab\Hannah Volpert\stimuli\White8.jpg"	"vacation"	"White"	"nose"	"Pos"	232	766	5	0	101	"W"	"M"	"Con"	6.64118216974059	6.64118216974059	766
2	141	"C:\Experiments\Bartholow Lab\Hannah Volpert\stimuli\White4.jpg"	"vacation"	"White"	"forehead"	"Pos"	212	697	5	0	101	"W"	"M"	"Con"	6.54678541076052	6.54678541076052	697
2	142	"C:\Experiments\Bartholow Lab\Hannah Volpert\stimuli\White23.jpg"	"joy"	"White"	"nose"	"Pos"	232	960	5	0	101	"W"	"M"	"Con"	6.86693328446188	6.86693328446188	960
2	143	"C:\Experiments\Bartholow Lab\Hannah Volpert\stimuli\White3.jpg"	"romance"	"White"	"eyes"	"Pos"	222	611	5	0	101	"W"	"M"	"Con"	6.4150969591716	6.4150969591716	611
2	144	"C:\Experiments\Bartholow Lab\Hannah Volpert\stimuli\White1.jpg"	"vomit"	"White"	"forehead"	"Neg"	211	655	4	0	101	"W"	"M"	"Incon"	6.48463523563525	6.48463523563525	655
2	145	"C:\Experiments\Bartholow Lab\Hannah Volpert\stimuli\White5.jpg"	"garbage"	"White"	"forehead"	"Neg"	211	937	4	0	101	"W"	"M"	"Incon"	6.84268328223842	6.84268328223842	937
2	146	"C:\Experiments\Bartholow Lab\Hannah Volpert\stimuli\White5.jpg"	"vomit"	"White"	"nose"	"Neg"	231	519	4	0	101	"W"	"M"	"Incon"	6.25190388316589	6.25190388316589	519
2	147	"C:\Experiments\Bartholow Lab\Hannah Volpert\stimuli\Black18.jpg"	"sewage"	"Black"	"forehead"	"Neg"	111	515	4	0	101	"W"	"M"	"Con"	6.24416690066374	6.24416690066374	515
2	148	"C:\Experiments\Bartholow Lab\Hannah Volpert\stimuli\White1.jpg"	"sewage"	"White"	"nose"	"Neg"	231	492	4	0	101	"W"	"M"	"Incon"	6.19847871649231	6.19847871649231	492
2	149	"C:\Experiments\Bartholow Lab\Hannah Volpert\stimuli\White6.jpg"	"sewage"	"White"	"nose"	"Neg"	231	415	4	0	101	"W"	"M"	"Incon"	6.0282785202307	6.0282785202307	415
2	150	"C:\Experiments\Bartholow Lab\Hannah Volpert\stimuli\White14.jpg"	"romance"	"White"	"forehead"	"Pos"	212	683	5	0	101	"W"	"M"	"Con"	6.52649485957079	6.52649485957079	683
2	151	"C:\Experiments\Bartholow Lab\Hannah Volpert\stimuli\Black6.jpg"	"beauty"	"Black"	"eyes"	"Pos"	122	550	5	0	101	"W"	"M"	"Incon"	6.30991827822652	6.30991827822652	550
2	152	"C:\Experiments\Bartholow Lab\Hannah Volpert\stimuli\Black15.jpg"	"love"	"Black"	"nose"	"Pos"	132	519	5	0	101	"W"	"M"	"Incon"	6.25190388316589	6.25190388316589	519
2	153	"C:\Experiments\Bartholow Lab\Hannah Volpert\stimuli\White17.jpg"	"vacation"	"White"	"forehead"	"Pos"	212	501	5	0	101	"W"	"M"	"Con"	6.21660610108486	6.21660610108486	501
2	154	"C:\Experiments\Bartholow Lab\Hannah Volpert\stimuli\White5.jpg"	"paradise"	"White"	"forehead"	"Pos"	212	587	5	0	101	"W"	"M"	"Con"	6.3750248198281	6.3750248198281	587
2	155	"C:\Experiments\Bartholow Lab\Hannah Volpert\stimuli\Black16.jpg"	"success"	"Black"	"forehead"	"Pos"	112	498	5	0	101	"W"	"M"	"Incon"	6.21060007702465	6.21060007702465	498
2	156	"C:\Experiments\Bartholow Lab\Hannah Volpert\stimuli\White6.jpg"	"love"	"White"	"forehead"	"Pos"	212	789	5	0	101	"W"	"M"	"Con"	6.67076632084587	6.67076632084587	789
2	157	"C:\Experiments\Bartholow Lab\Hannah Volpert\stimuli\Black8.jpg"	"romance"	"Black"	"eyes"	"Pos"	122	502	5	0	101	"W"	"M"	"Incon"	6.21860011969173	6.21860011969173	502
2	158	"C:\Experiments\Bartholow Lab\Hannah Volpert\stimuli\White20.jpg"	"pest"	"White"	"forehead"	"Neg"	211	580	4	0	101	"W"	"M"	"Incon"	6.36302810354046	6.36302810354046	580
2	159	"C:\Experiments\Bartholow Lab\Hannah Volpert\stimuli\White19.jpg"	"success"	"White"	"nose"	"Pos"	232	525	5	0	101	"W"	"M"	"Con"	6.26339826259162	6.26339826259162	525
2	160	"C:\Experiments\Bartholow Lab\Hannah Volpert\stimuli\White20.jpg"	"disgust"	"White"	"eyes"	"Neg"	221	545	4	0	101	"W"	"M"	"Incon"	6.30078579466324	6.30078579466324	545
2	161	"C:\Experiments\Bartholow Lab\Hannah Volpert\stimuli\Black15.jpg"	"beauty"	"Black"	"eyes"	"Pos"	122	591	5	0	101	"W"	"M"	"Incon"	6.3818160174061	6.3818160174061	591
2	162	"C:\Experiments\Bartholow Lab\Hannah Volpert\stimuli\White17.jpg"	"disgust"	"White"	"nose"	"Neg"	231	504	4	0	101	"W"	"M"	"Incon"	6.22257626807137	6.22257626807137	504
2	163	"C:\Experiments\Bartholow Lab\Hannah Volpert\stimuli\White23.jpg"	"love"	"White"	"forehead"	"Pos"	212	518	5	0	101	"W"	"M"	"Con"	6.24997524225948	6.24997524225948	518
2	164	"C:\Experiments\Bartholow Lab\Hannah Volpert\stimuli\Black23.jpg"	"beauty"	"Black"	"forehead"	"Pos"	112	495	5	0	101	"W"	"M"	"Incon"	6.20455776256869	6.20455776256869	495
2	165	"C:\Experiments\Bartholow Lab\Hannah Volpert\stimuli\White7.jpg"	"smile"	"White"	"forehead"	"Pos"	212	645	5	0	101	"W"	"M"	"Con"	6.46925031679577	6.46925031679577	645
2	166	"C:\Experiments\Bartholow Lab\Hannah Volpert\stimuli\Black2.jpg"	"poison"	"Black"	"eyes"	"Neg"	121	537	4	0	101	"W"	"M"	"Con"	6.28599809450886	6.28599809450886	537
2	167	"C:\Experiments\Bartholow Lab\Hannah Volpert\stimuli\Black2.jpg"	"success"	"Black"	"forehead"	"Pos"	112	580	5	0	101	"W"	"M"	"Incon"	6.36302810354046	6.36302810354046	580
2	168	"C:\Experiments\Bartholow Lab\Hannah Volpert\stimuli\Black15.jpg"	"vomit"	"Black"	"forehead"	"Neg"	111	490	4	0	101	"W"	"M"	"Con"	6.19440539110467	6.19440539110467	490
2	169	"C:\Experiments\Bartholow Lab\Hannah Volpert\stimuli\White18.jpg"	"garbage"	"White"	"nose"	"Neg"	231	499	4	0	101	"W"	"M"	"Incon"	6.21260609575152	6.21260609575152	499
2	170	"C:\Experiments\Bartholow Lab\Hannah Volpert\stimuli\White8.jpg"	"love"	"White"	"eyes"	"Pos"	222	535	5	0	101	"W"	"M"	"Con"	6.28226674689601	6.28226674689601	535
2	171	"C:\Experiments\Bartholow Lab\Hannah Volpert\stimuli\Black8.jpg"	"despair"	"Black"	"forehead"	"Neg"	111	725	4	0	101	"W"	"M"	"Con"	6.58617165485467	6.58617165485467	725
2	172	"C:\Experiments\Bartholow Lab\Hannah Volpert\stimuli\Black4.jpg"	"garbage"	"Black"	"nose"	"Neg"	131	715	4	0	101	"W"	"M"	"Con"	6.57228254269401	6.57228254269401	715
2	173	"C:\Experiments\Bartholow Lab\Hannah Volpert\stimuli\Black5.jpg"	"cockroach"	"Black"	"forehead"	"Neg"	111	524	4	0	101	"W"	"M"	"Con"	6.26149168432104	6.26149168432104	524
2	174	"C:\Experiments\Bartholow Lab\Hannah Volpert\stimuli\White20.jpg"	"romance"	"White"	"forehead"	"Pos"	212	464	5	0	101	"W"	"M"	"Con"	6.13988455222626	6.13988455222626	464
2	175	"C:\Experiments\Bartholow Lab\Hannah Volpert\stimuli\Black12.jpg"	"joy"	"Black"	"eyes"	"Pos"	122	782	5	0	101	"W"	"M"	"Incon"	6.66185474054531	6.66185474054531	782
2	176	"C:\Experiments\Bartholow Lab\Hannah Volpert\stimuli\Black10.jpg"	"poison"	"Black"	"nose"	"Neg"	131	588	4	0	101	"W"	"M"	"Con"	6.37672694789863	6.37672694789863	588
2	177	"C:\Experiments\Bartholow Lab\Hannah Volpert\stimuli\White15.jpg"	"vacation"	"White"	"nose"	"Pos"	232	613	5	0	101	"W"	"M"	"Con"	6.41836493593621	6.41836493593621	613
2	178	"C:\Experiments\Bartholow Lab\Hannah Volpert\stimuli\White9.jpg"	"success"	"White"	"forehead"	"Pos"	212	579	5	0	101	"W"	"M"	"Con"	6.361302477573	6.361302477573	579
2	179	"C:\Experiments\Bartholow Lab\Hannah Volpert\stimuli\White24.jpg"	"romance"	"White"	"forehead"	"Pos"	212	553	5	0	101	"W"	"M"	"Con"	6.31535800152233	6.31535800152233	553
2	180	"C:\Experiments\Bartholow Lab\Hannah Volpert\stimuli\Black21.jpg"	"vomit"	"Black"	"eyes"	"Neg"	121	640	4	0	101	"W"	"M"	"Con"	6.46146817635372	6.46146817635372	640
2	181	"C:\Experiments\Bartholow Lab\Hannah Volpert\stimuli\White20.jpg"	"love"	"White"	"nose"	"Pos"	232	523	5	0	101	"W"	"M"	"Con"	6.25958146406492	6.25958146406492	523
2	182	"C:\Experiments\Bartholow Lab\Hannah Volpert\stimuli\Black7.jpg"	"joy"	"Black"	"forehead"	"Pos"	112	551	5	0	101	"W"	"M"	"Incon"	6.31173480915291	6.31173480915291	551
2	183	"C:\Experiments\Bartholow Lab\Hannah Volpert\stimuli\White22.jpg"	"beauty"	"White"	"eyes"	"Pos"	222	616	5	0	101	"W"	"M"	"Con"	6.42324696353352	6.42324696353352	616
2	184	"C:\Experiments\Bartholow Lab\Hannah Volpert\stimuli\Black14.jpg"	"poison"	"Black"	"eyes"	"Neg"	121	470	4	0	101	"W"	"M"	"Con"	6.1527326947041	6.1527326947041	470
2	185	"C:\Experiments\Bartholow Lab\Hannah Volpert\stimuli\White24.jpg"	"disgust"	"White"	"eyes"	"Neg"	221	487	4	0	101	"W"	"M"	"Incon"	6.18826412308259	6.18826412308259	487
2	186	"C:\Experiments\Bartholow Lab\Hannah Volpert\stimuli\White7.jpg"	"romance"	"White"	"eyes"	"Pos"	222	730	5	0	101	"W"	"M"	"Con"	6.59304453414244	6.59304453414244	730
2	187	"C:\Experiments\Bartholow Lab\Hannah Volpert\stimuli\White1.jpg"	"success"	"White"	"eyes"	"Pos"	222	782	5	0	101	"W"	"M"	"Con"	6.66185474054531	6.66185474054531	782
2	188	"C:\Experiments\Bartholow Lab\Hannah Volpert\stimuli\Black5.jpg"	"paradise"	"Black"	"forehead"	"Pos"	112	668	5	0	101	"W"	"M"	"Incon"	6.50428817353665	6.50428817353665	668
2	189	"C:\Experiments\Bartholow Lab\Hannah Volpert\stimuli\White4.jpg"	"disgust"	"White"	"eyes"	"Neg"	221	517	4	0	101	"W"	"M"	"Incon"	6.24804287450843	6.24804287450843	517
2	190	"C:\Experiments\Bartholow Lab\Hannah Volpert\stimuli\White16.jpg"	"sewage"	"White"	"nose"	"Neg"	231	510	4	0	101	"W"	"M"	"Incon"	6.23441072571837	6.23441072571837	510
2	191	"C:\Experiments\Bartholow Lab\Hannah Volpert\stimuli\Black20.jpg"	"romance"	"Black"	"forehead"	"Pos"	112	521	5	0	101	"W"	"M"	"Incon"	6.25575004175337	6.25575004175337	521
2	192	"C:\Experiments\Bartholow Lab\Hannah Volpert\stimuli\Black19.jpg"	"despair"	"Black"	"forehead"	"Neg"	111	597	4	0	101	"W"	"M"	"Con"	6.3919171133926	6.3919171133926	597
2	193	"C:\Experiments\Bartholow Lab\Hannah Volpert\stimuli\Black17.jpg"	"smile"	"Black"	"forehead"	"Pos"	112	475	5	0	101	"W"	"M"	"Incon"	6.16331480403464	6.16331480403464	475
2	194	"C:\Experiments\Bartholow Lab\Hannah Volpert\stimuli\White18.jpg"	"pest"	"White"	"forehead"	"Neg"	211	513	4	0	101	"W"	"M"	"Incon"	6.24027584517077	6.24027584517077	513
2	195	"C:\Experiments\Bartholow Lab\Hannah Volpert\stimuli\White20.jpg"	"despair"	"White"	"nose"	"Neg"	231	543	4	0	101	"W"	"M"	"Incon"	6.29710931993394	6.29710931993394	543
2	196	"C:\Experiments\Bartholow Lab\Hannah Volpert\stimuli\White10.jpg"	"poison"	"White"	"eyes"	"Neg"	221	654	4	0	101	"W"	"M"	"Incon"	6.4831073514572	6.4831073514572	654
2	197	"C:\Experiments\Bartholow Lab\Hannah Volpert\stimuli\Black7.jpg"	"cockroach"	"Black"	"nose"	"Neg"	131	500	4	0	101	"W"	"M"	"Con"	6.21460809842219	6.21460809842219	500
2	198	"C:\Experiments\Bartholow Lab\Hannah Volpert\stimuli\White22.jpg"	"garbage"	"White"	"forehead"	"Neg"	211	490	4	0	101	"W"	"M"	"Incon"	6.19440539110467	6.19440539110467	490
2	199	"C:\Experiments\Bartholow Lab\Hannah Volpert\stimuli\Black12.jpg"	"smile"	"Black"	"forehead"	"Pos"	112	622	5	0	101	"W"	"M"	"Incon"	6.43294009273918	6.43294009273918	622
2	200	"C:\Experiments\Bartholow Lab\Hannah Volpert\stimuli\Black20.jpg"	"love"	"Black"	"eyes"	"Pos"	122	593	5	0	101	"W"	"M"	"Incon"	6.38519439899773	6.38519439899773	593
2	201	"C:\Experiments\Bartholow Lab\Hannah Volpert\stimuli\Black15.jpg"	"pest"	"Black"	"nose"	"Neg"	131	586	4	0	101	"W"	"M"	"Con"	6.37331978957701	6.37331978957701	586
2	202	"C:\Experiments\Bartholow Lab\Hannah Volpert\stimuli\Black21.jpg"	"beauty"	"Black"	"forehead"	"Pos"	112	635	5	0	101	"W"	"M"	"Incon"	6.45362499889269	6.45362499889269	635
2	203	"C:\Experiments\Bartholow Lab\Hannah Volpert\stimuli\White13.jpg"	"vacation"	"White"	"nose"	"Pos"	232	492	5	0	101	"W"	"M"	"Con"	6.19847871649231	6.19847871649231	492
2	204	"C:\Experiments\Bartholow Lab\Hannah Volpert\stimuli\White14.jpg"	"paradise"	"White"	"nose"	"Pos"	232	519	4	1	101	"W"	"M"	"Con"	6.25190388316589	6.25190388316589	519
2	205	"C:\Experiments\Bartholow Lab\Hannah Volpert\stimuli\Black3.jpg"	"garbage"	"Black"	"forehead"	"Neg"	111	654	4	0	101	"W"	"M"	"Con"	6.4831073514572	6.4831073514572	654
2	206	"C:\Experiments\Bartholow Lab\Hannah Volpert\stimuli\White3.jpg"	"success"	"White"	"nose"	"Pos"	232	625	5	0	101	"W"	"M"	"Con"	6.4377516497364	6.4377516497364	625
2	207	"C:\Experiments\Bartholow Lab\Hannah Volpert\stimuli\Black4.jpg"	"beauty"	"Black"	"forehead"	"Pos"	112	613	5	0	101	"W"	"M"	"Incon"	6.41836493593621	6.41836493593621	613
2	208	"C:\Experiments\Bartholow Lab\Hannah Volpert\stimuli\Black10.jpg"	"cockroach"	"Black"	"forehead"	"Neg"	111	1363	4	0	101	"W"	"M"	"Con"	7.21744343169653	6.9944442215513	1044.03722510848
2	209	"C:\Experiments\Bartholow Lab\Hannah Volpert\stimuli\Black23.jpg"	"vomit"	"Black"	"eyes"	"Neg"	121	823	4	0	101	"W"	"M"	"Con"	6.71295620067707	6.71295620067707	823
2	210	"C:\Experiments\Bartholow Lab\Hannah Volpert\stimuli\White16.jpg"	"cockroach"	"White"	"eyes"	"Neg"	221	877	4	0	101	"W"	"M"	"Incon"	6.77650699237218	6.77650699237218	877
2	211	"C:\Experiments\Bartholow Lab\Hannah Volpert\stimuli\Black8.jpg"	"disgust"	"Black"	"eyes"	"Neg"	121	782	4	0	101	"W"	"M"	"Con"	6.66185474054531	6.66185474054531	782
2	212	"C:\Experiments\Bartholow Lab\Hannah Volpert\stimuli\Black22.jpg"	"disgust"	"Black"	"eyes"	"Neg"	121	828	4	0	101	"W"	"M"	"Con"	6.71901315438526	6.71901315438526	828
2	213	"C:\Experiments\Bartholow Lab\Hannah Volpert\stimuli\Black9.jpg"	"smile"	"Black"	"eyes"	"Pos"	122	581	5	0	101	"W"	"M"	"Incon"	6.36475075685191	6.36475075685191	581
2	214	"C:\Experiments\Bartholow Lab\Hannah Volpert\stimuli\White4.jpg"	"cockroach"	"White"	"nose"	"Neg"	231	617	4	0	101	"W"	"M"	"Incon"	6.42486902390539	6.42486902390539	617
2	215	"C:\Experiments\Bartholow Lab\Hannah Volpert\stimuli\White6.jpg"	"paradise"	"White"	"nose"	"Pos"	232	631	5	0	101	"W"	"M"	"Con"	6.44730586254121	6.44730586254121	631
2	216	"C:\Experiments\Bartholow Lab\Hannah Volpert\stimuli\Black9.jpg"	"pest"	"Black"	"nose"	"Neg"	131	629	4	0	101	"W"	"M"	"Con"	6.44413125670044	6.44413125670044	629
2	217	"C:\Experiments\Bartholow Lab\Hannah Volpert\stimuli\Black14.jpg"	"poison"	"Black"	"forehead"	"Neg"	111	605	4	0	101	"W"	"M"	"Con"	6.40522845803084	6.40522845803084	605
2	218	"C:\Experiments\Bartholow Lab\Hannah Volpert\stimuli\White21.jpg"	"joy"	"White"	"nose"	"Pos"	232	462	5	0	101	"W"	"M"	"Con"	6.13556489108174	6.13556489108174	462
2	219	"C:\Experiments\Bartholow Lab\Hannah Volpert\stimuli\White1.jpg"	"vacation"	"White"	"forehead"	"Pos"	212	524	5	0	101	"W"	"M"	"Con"	6.26149168432104	6.26149168432104	524
2	220	"C:\Experiments\Bartholow Lab\Hannah Volpert\stimuli\Black6.jpg"	"love"	"Black"	"nose"	"Pos"	132	520	5	0	101	"W"	"M"	"Incon"	6.25382881157547	6.25382881157547	520
2	221	"C:\Experiments\Bartholow Lab\Hannah Volpert\stimuli\White5.jpg"	"joy"	"White"	"eyes"	"Pos"	222	595	5	0	101	"W"	"M"	"Con"	6.38856140554563	6.38856140554563	595
2	222	"C:\Experiments\Bartholow Lab\Hannah Volpert\stimuli\White21.jpg"	"vacation"	"White"	"forehead"	"Pos"	212	610	5	0	101	"W"	"M"	"Con"	6.41345895716736	6.41345895716736	610
2	223	"C:\Experiments\Bartholow Lab\Hannah Volpert\stimuli\Black24.jpg"	"smile"	"Black"	"eyes"	"Pos"	122	464	5	0	101	"W"	"M"	"Incon"	6.13988455222626	6.13988455222626	464
2	224	"C:\Experiments\Bartholow Lab\Hannah Volpert\stimuli\Black17.jpg"	"cockroach"	"Black"	"forehead"	"Neg"	111	635	4	0	101	"W"	"M"	"Con"	6.45362499889269	6.45362499889269	635
2	225	"C:\Experiments\Bartholow Lab\Hannah Volpert\stimuli\Black19.jpg"	"success"	"Black"	"forehead"	"Pos"	112	604	5	0	101	"W"	"M"	"Incon"	6.40357419793482	6.40357419793482	604
2	226	"C:\Experiments\Bartholow Lab\Hannah Volpert\stimuli\Black22.jpg"	"garbage"	"Black"	"nose"	"Neg"	131	568	4	0	101	"W"	"M"	"Con"	6.34212141872115	6.34212141872115	568
2	227	"C:\Experiments\Bartholow Lab\Hannah Volpert\stimuli\White21.jpg"	"beauty"	"White"	"eyes"	"Pos"	222	513	5	0	101	"W"	"M"	"Con"	6.24027584517077	6.24027584517077	513
2	228	"C:\Experiments\Bartholow Lab\Hannah Volpert\stimuli\Black4.jpg"	"joy"	"Black"	"eyes"	"Pos"	122	476	5	0	101	"W"	"M"	"Incon"	6.16541785423142	6.16541785423142	476
2	229	"C:\Experiments\Bartholow Lab\Hannah Volpert\stimuli\Black11.jpg"	"paradise"	"Black"	"forehead"	"Pos"	112	602	5	0	101	"W"	"M"	"Incon"	6.40025744530882	6.40025744530882	602
2	230	"C:\Experiments\Bartholow Lab\Hannah Volpert\stimuli\Black23.jpg"	"success"	"Black"	"nose"	"Pos"	132	963	5	0	101	"W"	"M"	"Incon"	6.87005341179813	6.87005341179813	963
2	231	"C:\Experiments\Bartholow Lab\Hannah Volpert\stimuli\Black18.jpg"	"beauty"	"Black"	"eyes"	"Pos"	122	532	5	0	101	"W"	"M"	"Incon"	6.27664348934164	6.27664348934164	532
2	232	"C:\Experiments\Bartholow Lab\Hannah Volpert\stimuli\White19.jpg"	"sewage"	"White"	"nose"	"Neg"	231	611	4	0	101	"W"	"M"	"Incon"	6.4150969591716	6.4150969591716	611
2	233	"C:\Experiments\Bartholow Lab\Hannah Volpert\stimuli\White14.jpg"	"vomit"	"White"	"forehead"	"Neg"	211	771	4	0	101	"W"	"M"	"Incon"	6.64768837356333	6.64768837356333	771
2	234	"C:\Experiments\Bartholow Lab\Hannah Volpert\stimuli\Black13.jpg"	"beauty"	"Black"	"nose"	"Pos"	132	639	5	0	101	"W"	"M"	"Incon"	6.45990445437753	6.45990445437753	639
2	235	"C:\Experiments\Bartholow Lab\Hannah Volpert\stimuli\Black5.jpg"	"love"	"Black"	"nose"	"Pos"	132	517	5	0	101	"W"	"M"	"Incon"	6.24804287450843	6.24804287450843	517
2	236	"C:\Experiments\Bartholow Lab\Hannah Volpert\stimuli\White9.jpg"	"cockroach"	"White"	"nose"	"Neg"	231	606	4	0	101	"W"	"M"	"Incon"	6.40687998606931	6.40687998606931	606
2	237	"C:\Experiments\Bartholow Lab\Hannah Volpert\stimuli\Black23.jpg"	"sewage"	"Black"	"nose"	"Neg"	131	602	4	0	101	"W"	"M"	"Con"	6.40025744530882	6.40025744530882	602
2	238	"C:\Experiments\Bartholow Lab\Hannah Volpert\stimuli\White19.jpg"	"sewage"	"White"	"eyes"	"Neg"	221	536	4	0	101	"W"	"M"	"Incon"	6.2841341610708	6.2841341610708	536
2	239	"C:\Experiments\Bartholow Lab\Hannah Volpert\stimuli\Black14.jpg"	"joy"	"Black"	"eyes"	"Pos"	122	502	5	0	101	"W"	"M"	"Incon"	6.21860011969173	6.21860011969173	502
2	240	"C:\Experiments\Bartholow Lab\Hannah Volpert\stimuli\Black10.jpg"	"vomit"	"Black"	"eyes"	"Neg"	121	572	4	0	101	"W"	"M"	"Con"	6.3491389913798	6.3491389913798	572
2	241	"C:\Experiments\Bartholow Lab\Hannah Volpert\stimuli\White9.jpg"	"sewage"	"White"	"forehead"	"Neg"	211	624	4	0	101	"W"	"M"	"Incon"	6.43615036836943	6.43615036836943	624
2	242	"C:\Experiments\Bartholow Lab\Hannah Volpert\stimuli\Black13.jpg"	"cockroach"	"Black"	"forehead"	"Neg"	111	622	4	0	101	"W"	"M"	"Con"	6.43294009273918	6.43294009273918	622
2	243	"C:\Experiments\Bartholow Lab\Hannah Volpert\stimuli\Black6.jpg"	"vomit"	"Black"	"nose"	"Neg"	131	527	4	0	101	"W"	"M"	"Con"	6.26720054854136	6.26720054854136	527
2	244	"C:\Experiments\Bartholow Lab\Hannah Volpert\stimuli\Black24.jpg"	"pest"	"Black"	"nose"	"Neg"	131	557	4	0	101	"W"	"M"	"Con"	6.32256523992728	6.32256523992728	557
2	245	"C:\Experiments\Bartholow Lab\Hannah Volpert\stimuli\Black13.jpg"	"romance"	"Black"	"forehead"	"Pos"	112	542	5	0	101	"W"	"M"	"Incon"	6.29526600143965	6.29526600143965	542
2	246	"C:\Experiments\Bartholow Lab\Hannah Volpert\stimuli\Black9.jpg"	"disgust"	"Black"	"eyes"	"Neg"	121	623	4	0	101	"W"	"M"	"Con"	6.43454651878745	6.43454651878745	623
2	247	"C:\Experiments\Bartholow Lab\Hannah Volpert\stimuli\White2.jpg"	"beauty"	"White"	"nose"	"Pos"	232	621	5	0	101	"W"	"M"	"Con"	6.43133108193348	6.43133108193348	621
2	248	"C:\Experiments\Bartholow Lab\Hannah Volpert\stimuli\Black20.jpg"	"cockroach"	"Black"	"eyes"	"Neg"	121	622	4	0	101	"W"	"M"	"Con"	6.43294009273918	6.43294009273918	622
2	249	"C:\Experiments\Bartholow Lab\Hannah Volpert\stimuli\Black21.jpg"	"garbage"	"Black"	"nose"	"Neg"	131	543	4	0	101	"W"	"M"	"Con"	6.29710931993394	6.29710931993394	543
2	250	"C:\Experiments\Bartholow Lab\Hannah Volpert\stimuli\White11.jpg"	"despair"	"White"	"nose"	"Neg"	231	509	4	0	101	"W"	"M"	"Incon"	6.23244801655052	6.23244801655052	509
2	251	"C:\Experiments\Bartholow Lab\Hannah Volpert\stimuli\White18.jpg"	"joy"	"White"	"nose"	"Pos"	232	491	5	0	101	"W"	"M"	"Con"	6.19644412779452	6.19644412779452	491
2	252	"C:\Experiments\Bartholow Lab\Hannah Volpert\stimuli\White16.jpg"	"smile"	"White"	"nose"	"Pos"	232	543	5	0	101	"W"	"M"	"Con"	6.29710931993394	6.29710931993394	543
2	253	"C:\Experiments\Bartholow Lab\Hannah Volpert\stimuli\White17.jpg"	"poison"	"White"	"forehead"	"Neg"	211	717	4	0	101	"W"	"M"	"Incon"	6.57507584059962	6.57507584059962	717
2	254	"C:\Experiments\Bartholow Lab\Hannah Volpert\stimuli\White3.jpg"	"joy"	"White"	"forehead"	"Pos"	212	593	5	0	101	"W"	"M"	"Con"	6.38519439899773	6.38519439899773	593
2	255	"C:\Experiments\Bartholow Lab\Hannah Volpert\stimuli\Black18.jpg"	"garbage"	"Black"	"eyes"	"Neg"	121	569	4	0	101	"W"	"M"	"Con"	6.34388043412633	6.34388043412633	569
2	256	"C:\Experiments\Bartholow Lab\Hannah Volpert\stimuli\Black8.jpg"	"pest"	"Black"	"nose"	"Neg"	131	576	4	0	101	"W"	"M"	"Con"	6.35610766069589	6.35610766069589	576
2	257	"C:\Experiments\Bartholow Lab\Hannah Volpert\stimuli\White2.jpg"	"cockroach"	"White"	"forehead"	"Neg"	211	614	4	0	101	"W"	"M"	"Incon"	6.41999492814714	6.41999492814714	614
2	258	"C:\Experiments\Bartholow Lab\Hannah Volpert\stimuli\Black1.jpg"	"sewage"	"Black"	"nose"	"Neg"	131	535	4	0	101	"W"	"M"	"Con"	6.28226674689601	6.28226674689601	535
2	259	"C:\Experiments\Bartholow Lab\Hannah Volpert\stimuli\Black20.jpg"	"disgust"	"Black"	"forehead"	"Neg"	111	648	4	0	101	"W"	"M"	"Con"	6.47389069635227	6.47389069635227	648
2	260	"C:\Experiments\Bartholow Lab\Hannah Volpert\stimuli\Black11.jpg"	"sewage"	"Black"	"eyes"	"Neg"	121	550	4	0	101	"W"	"M"	"Con"	6.30991827822652	6.30991827822652	550
2	261	"C:\Experiments\Bartholow Lab\Hannah Volpert\stimuli\White3.jpg"	"despair"	"White"	"nose"	"Neg"	231	519	4	0	101	"W"	"M"	"Incon"	6.25190388316589	6.25190388316589	519
2	262	"C:\Experiments\Bartholow Lab\Hannah Volpert\stimuli\Black19.jpg"	"despair"	"Black"	"nose"	"Neg"	131	563	4	0	101	"W"	"M"	"Con"	6.33327962813969	6.33327962813969	563
2	263	"C:\Experiments\Bartholow Lab\Hannah Volpert\stimuli\Black10.jpg"	"joy"	"Black"	"forehead"	"Pos"	112	614	5	0	101	"W"	"M"	"Incon"	6.41999492814714	6.41999492814714	614
2	264	"C:\Experiments\Bartholow Lab\Hannah Volpert\stimuli\White8.jpg"	"despair"	"White"	"forehead"	"Neg"	211	612	4	0	101	"W"	"M"	"Incon"	6.41673228251233	6.41673228251233	612
2	265	"C:\Experiments\Bartholow Lab\Hannah Volpert\stimuli\Black5.jpg"	"despair"	"Black"	"eyes"	"Neg"	121	595	4	0	101	"W"	"M"	"Con"	6.38856140554563	6.38856140554563	595
2	266	"C:\Experiments\Bartholow Lab\Hannah Volpert\stimuli\Black18.jpg"	"romance"	"Black"	"nose"	"Pos"	132	683	5	0	101	"W"	"M"	"Incon"	6.52649485957079	6.52649485957079	683
2	267	"C:\Experiments\Bartholow Lab\Hannah Volpert\stimuli\Black17.jpg"	"love"	"Black"	"eyes"	"Pos"	122	596	5	0	101	"W"	"M"	"Incon"	6.39024066706535	6.39024066706535	596
2	268	"C:\Experiments\Bartholow Lab\Hannah Volpert\stimuli\White12.jpg"	"success"	"White"	"nose"	"Pos"	232	704	5	0	101	"W"	"M"	"Con"	6.55677835615804	6.55677835615804	704
2	269	"C:\Experiments\Bartholow Lab\Hannah Volpert\stimuli\Black14.jpg"	"garbage"	"Black"	"nose"	"Neg"	131	734	4	0	101	"W"	"M"	"Con"	6.59850902861452	6.59850902861452	734
2	270	"C:\Experiments\Bartholow Lab\Hannah Volpert\stimuli\Black21.jpg"	"success"	"Black"	"nose"	"Pos"	132	682	5	0	101	"W"	"M"	"Incon"	6.52502965784346	6.52502965784346	682
2	271	"C:\Experiments\Bartholow Lab\Hannah Volpert\stimuli\White24.jpg"	"smile"	"White"	"nose"	"Pos"	232	693	5	0	101	"W"	"M"	"Con"	6.5410299991899	6.5410299991899	693
2	272	"C:\Experiments\Bartholow Lab\Hannah Volpert\stimuli\White13.jpg"	"poison"	"White"	"eyes"	"Neg"	221	753	4	0	101	"W"	"M"	"Incon"	6.62406522779989	6.62406522779989	753
2	273	"C:\Experiments\Bartholow Lab\Hannah Volpert\stimuli\Black12.jpg"	"love"	"Black"	"nose"	"Pos"	132	714	5	0	101	"W"	"M"	"Incon"	6.57088296233958	6.57088296233958	714
2	274	"C:\Experiments\Bartholow Lab\Hannah Volpert\stimuli\White11.jpg"	"love"	"White"	"forehead"	"Pos"	212	651	5	0	101	"W"	"M"	"Con"	6.47850964220857	6.47850964220857	651
2	275	"C:\Experiments\Bartholow Lab\Hannah Volpert\stimuli\White1.jpg"	"poison"	"White"	"eyes"	"Neg"	221	590	4	0	101	"W"	"M"	"Incon"	6.38012253689976	6.38012253689976	590
2	276	"C:\Experiments\Bartholow Lab\Hannah Volpert\stimuli\White8.jpg"	"pest"	"White"	"eyes"	"Neg"	221	679	4	0	101	"W"	"M"	"Incon"	6.5206211275587	6.5206211275587	679
2	277	"C:\Experiments\Bartholow Lab\Hannah Volpert\stimuli\White10.jpg"	"smile"	"White"	"eyes"	"Pos"	222	627	5	0	101	"W"	"M"	"Con"	6.44094654063292	6.44094654063292	627
2	278	"C:\Experiments\Bartholow Lab\Hannah Volpert\stimuli\White8.jpg"	"garbage"	"White"	"nose"	"Neg"	231	564	4	0	101	"W"	"M"	"Incon"	6.33505425149806	6.33505425149806	564
2	279	"C:\Experiments\Bartholow Lab\Hannah Volpert\stimuli\White12.jpg"	"pest"	"White"	"eyes"	"Neg"	221	551	4	0	101	"W"	"M"	"Incon"	6.31173480915291	6.31173480915291	551
2	280	"C:\Experiments\Bartholow Lab\Hannah Volpert\stimuli\White13.jpg"	"garbage"	"White"	"nose"	"Neg"	231	632	4	0	101	"W"	"M"	"Incon"	6.44888939414686	6.44888939414686	632
2	281	"C:\Experiments\Bartholow Lab\Hannah Volpert\stimuli\White9.jpg"	"vacation"	"White"	"nose"	"Pos"	232	566	5	0	101	"W"	"M"	"Con"	6.33859407820318	6.33859407820318	566
2	282	"C:\Experiments\Bartholow Lab\Hannah Volpert\stimuli\White22.jpg"	"smile"	"White"	"forehead"	"Pos"	212	583	5	0	101	"W"	"M"	"Con"	6.36818718635049	6.36818718635049	583
2	283	"C:\Experiments\Bartholow Lab\Hannah Volpert\stimuli\Black18.jpg"	"joy"	"Black"	"forehead"	"Pos"	112	621	5	0	101	"W"	"M"	"Incon"	6.43133108193348	6.43133108193348	621
2	284	"C:\Experiments\Bartholow Lab\Hannah Volpert\stimuli\Black11.jpg"	"despair"	"Black"	"forehead"	"Neg"	111	598	4	0	101	"W"	"M"	"Con"	6.39359075395063	6.39359075395063	598
2	285	"C:\Experiments\Bartholow Lab\Hannah Volpert\stimuli\Black22.jpg"	"love"	"Black"	"nose"	"Pos"	132	786	5	0	101	"W"	"M"	"Incon"	6.66695679242921	6.66695679242921	786
2	286	"C:\Experiments\Bartholow Lab\Hannah Volpert\stimuli\Black3.jpg"	"cockroach"	"Black"	"eyes"	"Neg"	121	621	4	0	101	"W"	"M"	"Con"	6.43133108193348	6.43133108193348	621
2	287	"C:\Experiments\Bartholow Lab\Hannah Volpert\stimuli\Black22.jpg"	"joy"	"Black"	"forehead"	"Pos"	112	732	5	0	101	"W"	"M"	"Incon"	6.59578051396131	6.59578051396131	732
2	288	"C:\Experiments\Bartholow Lab\Hannah Volpert\stimuli\White9.jpg"	"despair"	"White"	"eyes"	"Neg"	221	978	4	0	101	"W"	"M"	"Incon"	6.88550967003482	6.88550967003482	978
2	1	"C:\Experiments\Bartholow Lab\Hannah Volpert\stimuli\White9.jpg"	"romance"	"White"	"forehead"	"Pos"	212	952	5	0	102	"W"	"M"	"Con"	6.85856503479136	6.78776143728751	884.480897213258
2	2	"C:\Experiments\Bartholow Lab\Hannah Volpert\stimuli\White18.jpg"	"success"	"White"	"nose"	"Pos"	232	559	5	0	102	"W"	"M"	"Con"	6.3261494731551	6.3261494731551	559
2	3	"C:\Experiments\Bartholow Lab\Hannah Volpert\stimuli\White19.jpg"	"romance"	"White"	"nose"	"Pos"	232	576	5	0	102	"W"	"M"	"Con"	6.35610766069589	6.35610766069589	576
2	4	"C:\Experiments\Bartholow Lab\Hannah Volpert\stimuli\Black10.jpg"	"cockroach"	"Black"	"eyes"	"Neg"	121	582	4	0	102	"W"	"M"	"Con"	6.36647044773144	6.36647044773144	582
2	5	"C:\Experiments\Bartholow Lab\Hannah Volpert\stimuli\Black24.jpg"	"success"	"Black"	"eyes"	"Pos"	122	511	5	0	102	"W"	"M"	"Incon"	6.2363695902037	6.2363695902037	511
2	6	"C:\Experiments\Bartholow Lab\Hannah Volpert\stimuli\White5.jpg"	"beauty"	"White"	"eyes"	"Pos"	222	552	5	0	102	"W"	"M"	"Con"	6.31354804627709	6.31354804627709	552
2	7	"C:\Experiments\Bartholow Lab\Hannah Volpert\stimuli\White23.jpg"	"romance"	"White"	"forehead"	"Pos"	212	500	5	0	102	"W"	"M"	"Con"	6.21460809842219	6.21460809842219	500
2	8	"C:\Experiments\Bartholow Lab\Hannah Volpert\stimuli\Black22.jpg"	"romance"	"Black"	"nose"	"Pos"	132	507	5	0	102	"W"	"M"	"Incon"	6.22851100359118	6.22851100359118	507
2	9	"C:\Experiments\Bartholow Lab\Hannah Volpert\stimuli\White22.jpg"	"garbage"	"White"	"eyes"	"Neg"	221	499	4	0	102	"W"	"M"	"Incon"	6.21260609575152	6.21260609575152	499
2	10	"C:\Experiments\Bartholow Lab\Hannah Volpert\stimuli\Black8.jpg"	"disgust"	"Black"	"eyes"	"Neg"	121	602	4	0	102	"W"	"M"	"Con"	6.40025744530882	6.40025744530882	602
2	11	"C:\Experiments\Bartholow Lab\Hannah Volpert\stimuli\White1.jpg"	"cockroach"	"White"	"forehead"	"Neg"	211	533	4	0	102	"W"	"M"	"Incon"	6.27852142416584	6.27852142416584	533
2	12	"C:\Experiments\Bartholow Lab\Hannah Volpert\stimuli\White2.jpg"	"despair"	"White"	"nose"	"Neg"	231	622	4	0	102	"W"	"M"	"Incon"	6.43294009273918	6.43294009273918	622
2	13	"C:\Experiments\Bartholow Lab\Hannah Volpert\stimuli\White20.jpg"	"beauty"	"White"	"nose"	"Pos"	232	501	5	0	102	"W"	"M"	"Con"	6.21660610108486	6.21660610108486	501
2	14	"C:\Experiments\Bartholow Lab\Hannah Volpert\stimuli\White11.jpg"	"vomit"	"White"	"forehead"	"Neg"	211	588	4	0	102	"W"	"M"	"Incon"	6.37672694789863	6.37672694789863	588
2	15	"C:\Experiments\Bartholow Lab\Hannah Volpert\stimuli\Black20.jpg"	"smile"	"Black"	"forehead"	"Pos"	112	1708	5	0	102	"W"	"M"	"Incon"	7.44307837434852	6.78776143728751	884.480897213258
2	16	"C:\Experiments\Bartholow Lab\Hannah Volpert\stimuli\Black5.jpg"	"disgust"	"Black"	"nose"	"Neg"	131	614	4	0	102	"W"	"M"	"Con"	6.41999492814714	6.41999492814714	614
2	17	"C:\Experiments\Bartholow Lab\Hannah Volpert\stimuli\White13.jpg"	"vomit"	"White"	"eyes"	"Neg"	221	532	4	0	102	"W"	"M"	"Incon"	6.27664348934164	6.27664348934164	532
2	18	"C:\Experiments\Bartholow Lab\Hannah Volpert\stimuli\White3.jpg"	"vomit"	"White"	"forehead"	"Neg"	211	527	4	0	102	"W"	"M"	"Incon"	6.26720054854136	6.26720054854136	527
2	19	"C:\Experiments\Bartholow Lab\Hannah Volpert\stimuli\White1.jpg"	"success"	"White"	"nose"	"Pos"	232	507	5	0	102	"W"	"M"	"Con"	6.22851100359118	6.22851100359118	507
2	20	"C:\Experiments\Bartholow Lab\Hannah Volpert\stimuli\Black8.jpg"	"garbage"	"Black"	"nose"	"Neg"	131	598	4	0	102	"W"	"M"	"Con"	6.39359075395063	6.39359075395063	598
2	21	"C:\Experiments\Bartholow Lab\Hannah Volpert\stimuli\Black8.jpg"	"paradise"	"Black"	"eyes"	"Pos"	122	565	4	1	102	"W"	"M"	"Incon"	6.33682573114644	6.33682573114644	565
2	22	"C:\Experiments\Bartholow Lab\Hannah Volpert\stimuli\Black9.jpg"	"despair"	"Black"	"nose"	"Neg"	131	552	4	0	102	"W"	"M"	"Con"	6.31354804627709	6.31354804627709	552
2	23	"C:\Experiments\Bartholow Lab\Hannah Volpert\stimuli\Black3.jpg"	"romance"	"Black"	"eyes"	"Pos"	122	500	5	0	102	"W"	"M"	"Incon"	6.21460809842219	6.21460809842219	500
2	24	"C:\Experiments\Bartholow Lab\Hannah Volpert\stimuli\Black1.jpg"	"love"	"Black"	"eyes"	"Pos"	122	517	5	0	102	"W"	"M"	"Incon"	6.24804287450843	6.24804287450843	517
2	25	"C:\Experiments\Bartholow Lab\Hannah Volpert\stimuli\Black18.jpg"	"smile"	"Black"	"forehead"	"Pos"	112	638	5	0	102	"W"	"M"	"Incon"	6.45833828334479	6.45833828334479	638
2	26	"C:\Experiments\Bartholow Lab\Hannah Volpert\stimuli\White16.jpg"	"garbage"	"White"	"nose"	"Neg"	231	526	4	0	102	"W"	"M"	"Incon"	6.26530121273771	6.26530121273771	526
2	27	"C:\Experiments\Bartholow Lab\Hannah Volpert\stimuli\White21.jpg"	"poison"	"White"	"eyes"	"Neg"	221	621	4	0	102	"W"	"M"	"Incon"	6.43133108193348	6.43133108193348	621
2	28	"C:\Experiments\Bartholow Lab\Hannah Volpert\stimuli\White16.jpg"	"paradise"	"White"	"nose"	"Pos"	232	699	5	0	102	"W"	"M"	"Con"	6.54965074223381	6.54965074223381	699
2	29	"C:\Experiments\Bartholow Lab\Hannah Volpert\stimuli\White17.jpg"	"pest"	"White"	"forehead"	"Neg"	211	665	4	0	102	"W"	"M"	"Incon"	6.49978704065585	6.49978704065585	665
2	30	"C:\Experiments\Bartholow Lab\Hannah Volpert\stimuli\Black2.jpg"	"poison"	"Black"	"nose"	"Neg"	131	661	4	0	102	"W"	"M"	"Con"	6.49375383985169	6.49375383985169	661
2	31	"C:\Experiments\Bartholow Lab\Hannah Volpert\stimuli\Black4.jpg"	"pest"	"Black"	"forehead"	"Neg"	111	622	4	0	102	"W"	"M"	"Con"	6.43294009273918	6.43294009273918	622
2	32	"C:\Experiments\Bartholow Lab\Hannah Volpert\stimuli\Black4.jpg"	"joy"	"Black"	"nose"	"Pos"	132	526	5	0	102	"W"	"M"	"Incon"	6.26530121273771	6.26530121273771	526
2	33	"C:\Experiments\Bartholow Lab\Hannah Volpert\stimuli\White7.jpg"	"joy"	"White"	"eyes"	"Pos"	222	746	5	0	102	"W"	"M"	"Con"	6.61472560020376	6.61472560020376	746
2	34	"C:\Experiments\Bartholow Lab\Hannah Volpert\stimuli\Black15.jpg"	"poison"	"Black"	"forehead"	"Neg"	111	695	4	0	102	"W"	"M"	"Con"	6.54391184556479	6.54391184556479	695
2	35	"C:\Experiments\Bartholow Lab\Hannah Volpert\stimuli\Black21.jpg"	"sewage"	"Black"	"forehead"	"Neg"	111	634	4	0	102	"W"	"M"	"Con"	6.45204895443723	6.45204895443723	634
2	36	"C:\Experiments\Bartholow Lab\Hannah Volpert\stimuli\White9.jpg"	"joy"	"White"	"eyes"	"Pos"	222	747	5	0	102	"W"	"M"	"Con"	6.61606518513282	6.61606518513282	747
2	37	"C:\Experiments\Bartholow Lab\Hannah Volpert\stimuli\White20.jpg"	"success"	"White"	"forehead"	"Pos"	212	460	5	0	102	"W"	"M"	"Con"	6.13122648948314	6.13122648948314	460
2	38	"C:\Experiments\Bartholow Lab\Hannah Volpert\stimuli\White3.jpg"	"smile"	"White"	"forehead"	"Pos"	212	536	5	0	102	"W"	"M"	"Con"	6.2841341610708	6.2841341610708	536
2	39	"C:\Experiments\Bartholow Lab\Hannah Volpert\stimuli\White13.jpg"	"paradise"	"White"	"eyes"	"Pos"	222	694	5	0	102	"W"	"M"	"Con"	6.5424719605068	6.5424719605068	694
2	40	"C:\Experiments\Bartholow Lab\Hannah Volpert\stimuli\White3.jpg"	"vomit"	"White"	"nose"	"Neg"	231	564	4	0	102	"W"	"M"	"Incon"	6.33505425149806	6.33505425149806	564
2	41	"C:\Experiments\Bartholow Lab\Hannah Volpert\stimuli\White7.jpg"	"sewage"	"White"	"nose"	"Neg"	231	568	4	0	102	"W"	"M"	"Incon"	6.34212141872115	6.34212141872115	568
2	42	"C:\Experiments\Bartholow Lab\Hannah Volpert\stimuli\Black6.jpg"	"vacation"	"Black"	"eyes"	"Pos"	122	763	5	0	102	"W"	"M"	"Incon"	6.63725803128446	6.63725803128446	763
2	43	"C:\Experiments\Bartholow Lab\Hannah Volpert\stimuli\White22.jpg"	"beauty"	"White"	"eyes"	"Pos"	222	583	5	0	102	"W"	"M"	"Con"	6.36818718635049	6.36818718635049	583
2	44	"C:\Experiments\Bartholow Lab\Hannah Volpert\stimuli\White16.jpg"	"sewage"	"White"	"eyes"	"Neg"	221	544	4	0	102	"W"	"M"	"Incon"	6.29894924685594	6.29894924685594	544
2	45	"C:\Experiments\Bartholow Lab\Hannah Volpert\stimuli\Black17.jpg"	"love"	"Black"	"nose"	"Pos"	132	494	5	0	102	"W"	"M"	"Incon"	6.20253551718792	6.20253551718792	494
2	46	"C:\Experiments\Bartholow Lab\Hannah Volpert\stimuli\Black13.jpg"	"vacation"	"Black"	"eyes"	"Pos"	122	516	5	0	102	"W"	"M"	"Incon"	6.24610676548156	6.24610676548156	516
2	47	"C:\Experiments\Bartholow Lab\Hannah Volpert\stimuli\White20.jpg"	"despair"	"White"	"forehead"	"Neg"	211	533	4	0	102	"W"	"M"	"Incon"	6.27852142416584	6.27852142416584	533
2	48	"C:\Experiments\Bartholow Lab\Hannah Volpert\stimuli\Black23.jpg"	"smile"	"Black"	"eyes"	"Pos"	122	467	5	0	102	"W"	"M"	"Incon"	6.1463292576689	6.1463292576689	467
2	49	"C:\Experiments\Bartholow Lab\Hannah Volpert\stimuli\White17.jpg"	"love"	"White"	"forehead"	"Pos"	212	436	5	0	102	"W"	"M"	"Con"	6.07764224334903	6.07764224334903	436
2	50	"C:\Experiments\Bartholow Lab\Hannah Volpert\stimuli\White22.jpg"	"joy"	"White"	"forehead"	"Pos"	212	461	5	0	102	"W"	"M"	"Con"	6.13339804299665	6.13339804299665	461
2	51	"C:\Experiments\Bartholow Lab\Hannah Volpert\stimuli\Black1.jpg"	"garbage"	"Black"	"forehead"	"Neg"	111	486	4	0	102	"W"	"M"	"Con"	6.18620862390049	6.18620862390049	486
2	52	"C:\Experiments\Bartholow Lab\Hannah Volpert\stimuli\White1.jpg"	"love"	"White"	"forehead"	"Pos"	212	521	5	0	102	"W"	"M"	"Con"	6.25575004175337	6.25575004175337	521
2	53	"C:\Experiments\Bartholow Lab\Hannah Volpert\stimuli\White12.jpg"	"garbage"	"White"	"nose"	"Neg"	231	485	4	0	102	"W"	"M"	"Incon"	6.18414889093748	6.18414889093748	485
2	54	"C:\Experiments\Bartholow Lab\Hannah Volpert\stimuli\Black7.jpg"	"romance"	"Black"	"forehead"	"Pos"	112	557	5	0	102	"W"	"M"	"Incon"	6.32256523992728	6.32256523992728	557
2	55	"C:\Experiments\Bartholow Lab\Hannah Volpert\stimuli\Black21.jpg"	"vacation"	"Black"	"eyes"	"Pos"	122	546	5	0	102	"W"	"M"	"Incon"	6.30261897574491	6.30261897574491	546
2	56	"C:\Experiments\Bartholow Lab\Hannah Volpert\stimuli\Black8.jpg"	"despair"	"Black"	"forehead"	"Neg"	111	499	4	0	102	"W"	"M"	"Con"	6.21260609575152	6.21260609575152	499
2	57	"C:\Experiments\Bartholow Lab\Hannah Volpert\stimuli\White15.jpg"	"pest"	"White"	"nose"	"Neg"	231	562	4	0	102	"W"	"M"	"Incon"	6.33150184989369	6.33150184989369	562
2	58	"C:\Experiments\Bartholow Lab\Hannah Volpert\stimuli\Black4.jpg"	"sewage"	"Black"	"eyes"	"Neg"	121	547	4	0	102	"W"	"M"	"Con"	6.30444880242198	6.30444880242198	547
2	59	"C:\Experiments\Bartholow Lab\Hannah Volpert\stimuli\White4.jpg"	"success"	"White"	"forehead"	"Pos"	212	564	5	0	102	"W"	"M"	"Con"	6.33505425149806	6.33505425149806	564
2	60	"C:\Experiments\Bartholow Lab\Hannah Volpert\stimuli\White5.jpg"	"paradise"	"White"	"forehead"	"Pos"	212	613	5	0	102	"W"	"M"	"Con"	6.41836493593621	6.41836493593621	613
2	61	"C:\Experiments\Bartholow Lab\Hannah Volpert\stimuli\Black13.jpg"	"joy"	"Black"	"forehead"	"Pos"	112	420	5	0	102	"W"	"M"	"Incon"	6.04025471127741	6.04025471127741	420
2	62	"C:\Experiments\Bartholow Lab\Hannah Volpert\stimuli\Black17.jpg"	"pest"	"Black"	"nose"	"Neg"	131	600	4	0	102	"W"	"M"	"Con"	6.39692965521615	6.39692965521615	600
2	63	"C:\Experiments\Bartholow Lab\Hannah Volpert\stimuli\White5.jpg"	"poison"	"White"	"forehead"	"Neg"	211	563	4	0	102	"W"	"M"	"Incon"	6.33327962813969	6.33327962813969	563
2	64	"C:\Experiments\Bartholow Lab\Hannah Volpert\stimuli\White23.jpg"	"joy"	"White"	"nose"	"Pos"	232	698	5	0	102	"W"	"M"	"Con"	6.54821910276237	6.54821910276237	698
2	65	"C:\Experiments\Bartholow Lab\Hannah Volpert\stimuli\Black14.jpg"	"disgust"	"Black"	"forehead"	"Neg"	111	505	4	0	102	"W"	"M"	"Con"	6.22455842927536	6.22455842927536	505
2	66	"C:\Experiments\Bartholow Lab\Hannah Volpert\stimuli\Black17.jpg"	"despair"	"Black"	"forehead"	"Neg"	111	476	4	0	102	"W"	"M"	"Con"	6.16541785423142	6.16541785423142	476
2	67	"C:\Experiments\Bartholow Lab\Hannah Volpert\stimuli\White13.jpg"	"joy"	"White"	"forehead"	"Pos"	212	413	5	0	102	"W"	"M"	"Con"	6.02344759296103	6.02344759296103	413
2	68	"C:\Experiments\Bartholow Lab\Hannah Volpert\stimuli\White15.jpg"	"despair"	"White"	"forehead"	"Neg"	211	521	4	0	102	"W"	"M"	"Incon"	6.25575004175337	6.25575004175337	521
2	69	"C:\Experiments\Bartholow Lab\Hannah Volpert\stimuli\White14.jpg"	"vomit"	"White"	"nose"	"Neg"	231	650	4	0	102	"W"	"M"	"Incon"	6.47697236288968	6.47697236288968	650
2	70	"C:\Experiments\Bartholow Lab\Hannah Volpert\stimuli\Black7.jpg"	"cockroach"	"Black"	"eyes"	"Neg"	121	635	4	0	102	"W"	"M"	"Con"	6.45362499889269	6.45362499889269	635
2	71	"C:\Experiments\Bartholow Lab\Hannah Volpert\stimuli\Black2.jpg"	"smile"	"Black"	"eyes"	"Pos"	122	425	5	0	102	"W"	"M"	"Incon"	6.05208916892442	6.05208916892442	425
2	72	"C:\Experiments\Bartholow Lab\Hannah Volpert\stimuli\Black6.jpg"	"cockroach"	"Black"	"forehead"	"Neg"	111	608	4	0	102	"W"	"M"	"Con"	6.41017488196617	6.41017488196617	608
2	73	"C:\Experiments\Bartholow Lab\Hannah Volpert\stimuli\White4.jpg"	"romance"	"White"	"eyes"	"Pos"	222	536	5	0	102	"W"	"M"	"Con"	6.2841341610708	6.2841341610708	536
2	74	"C:\Experiments\Bartholow Lab\Hannah Volpert\stimuli\White8.jpg"	"romance"	"White"	"eyes"	"Pos"	222	406	5	0	102	"W"	"M"	"Con"	6.00635315960173	6.00635315960173	406
2	75	"C:\Experiments\Bartholow Lab\Hannah Volpert\stimuli\White22.jpg"	"vacation"	"White"	"nose"	"Pos"	232	713	5	0	102	"W"	"M"	"Con"	6.5694814204143	6.5694814204143	713
2	76	"C:\Experiments\Bartholow Lab\Hannah Volpert\stimuli\Black4.jpg"	"success"	"Black"	"forehead"	"Pos"	112	605	5	0	102	"W"	"M"	"Incon"	6.40522845803084	6.40522845803084	605
2	77	"C:\Experiments\Bartholow Lab\Hannah Volpert\stimuli\White24.jpg"	"despair"	"White"	"nose"	"Neg"	231	555	4	0	102	"W"	"M"	"Incon"	6.31896811374643	6.31896811374643	555
2	78	"C:\Experiments\Bartholow Lab\Hannah Volpert\stimuli\White11.jpg"	"smile"	"White"	"eyes"	"Pos"	222	556	5	0	102	"W"	"M"	"Con"	6.32076829425058	6.32076829425058	556
2	79	"C:\Experiments\Bartholow Lab\Hannah Volpert\stimuli\White11.jpg"	"pest"	"White"	"eyes"	"Neg"	221	637	4	0	102	"W"	"M"	"Incon"	6.45676965557216	6.45676965557216	637
2	80	"C:\Experiments\Bartholow Lab\Hannah Volpert\stimuli\White6.jpg"	"smile"	"White"	"eyes"	"Pos"	222	526	5	0	102	"W"	"M"	"Con"	6.26530121273771	6.26530121273771	526
2	81	"C:\Experiments\Bartholow Lab\Hannah Volpert\stimuli\White24.jpg"	"vomit"	"White"	"eyes"	"Neg"	221	615	4	0	102	"W"	"M"	"Incon"	6.42162226780652	6.42162226780652	615
2	82	"C:\Experiments\Bartholow Lab\Hannah Volpert\stimuli\White20.jpg"	"vacation"	"White"	"eyes"	"Pos"	222	477	5	0	102	"W"	"M"	"Con"	6.16751649088834	6.16751649088834	477
2	83	"C:\Experiments\Bartholow Lab\Hannah Volpert\stimuli\White24.jpg"	"love"	"White"	"nose"	"Pos"	232	558	5	0	102	"W"	"M"	"Con"	6.32435896238131	6.32435896238131	558
2	84	"C:\Experiments\Bartholow Lab\Hannah Volpert\stimuli\Black17.jpg"	"joy"	"Black"	"eyes"	"Pos"	122	556	5	0	102	"W"	"M"	"Incon"	6.32076829425058	6.32076829425058	556
2	85	"C:\Experiments\Bartholow Lab\Hannah Volpert\stimuli\White21.jpg"	"vomit"	"White"	"forehead"	"Neg"	211	592	4	0	102	"W"	"M"	"Incon"	6.38350663488401	6.38350663488401	592
2	86	"C:\Experiments\Bartholow Lab\Hannah Volpert\stimuli\Black15.jpg"	"sewage"	"Black"	"nose"	"Neg"	131	664	4	0	102	"W"	"M"	"Con"	6.49828214947643	6.49828214947643	664
2	87	"C:\Experiments\Bartholow Lab\Hannah Volpert\stimuli\White12.jpg"	"cockroach"	"White"	"eyes"	"Neg"	221	639	4	0	102	"W"	"M"	"Incon"	6.45990445437753	6.45990445437753	639
2	88	"C:\Experiments\Bartholow Lab\Hannah Volpert\stimuli\White19.jpg"	"garbage"	"White"	"eyes"	"Neg"	221	536	4	0	102	"W"	"M"	"Incon"	6.2841341610708	6.2841341610708	536
2	89	"C:\Experiments\Bartholow Lab\Hannah Volpert\stimuli\Black6.jpg"	"joy"	"Black"	"nose"	"Pos"	132	424	5	0	102	"W"	"M"	"Incon"	6.04973345523196	6.04973345523196	424
2	90	"C:\Experiments\Bartholow Lab\Hannah Volpert\stimuli\White10.jpg"	"garbage"	"White"	"eyes"	"Neg"	221	559	4	0	102	"W"	"M"	"Incon"	6.3261494731551	6.3261494731551	559
2	91	"C:\Experiments\Bartholow Lab\Hannah Volpert\stimuli\Black4.jpg"	"vacation"	"Black"	"eyes"	"Pos"	122	501	5	0	102	"W"	"M"	"Incon"	6.21660610108486	6.21660610108486	501
2	92	"C:\Experiments\Bartholow Lab\Hannah Volpert\stimuli\White21.jpg"	"love"	"White"	"nose"	"Pos"	232	478	5	0	102	"W"	"M"	"Con"	6.16961073249146	6.16961073249146	478
2	93	"C:\Experiments\Bartholow Lab\Hannah Volpert\stimuli\White23.jpg"	"sewage"	"White"	"eyes"	"Neg"	221	489	4	0	102	"W"	"M"	"Incon"	6.19236248947487	6.19236248947487	489
2	94	"C:\Experiments\Bartholow Lab\Hannah Volpert\stimuli\Black19.jpg"	"vacation"	"Black"	"forehead"	"Pos"	112	685	5	0	102	"W"	"M"	"Incon"	6.52941883826223	6.52941883826223	685
2	95	"C:\Experiments\Bartholow Lab\Hannah Volpert\stimuli\White15.jpg"	"beauty"	"White"	"eyes"	"Pos"	222	502	5	0	102	"W"	"M"	"Con"	6.21860011969173	6.21860011969173	502
2	96	"C:\Experiments\Bartholow Lab\Hannah Volpert\stimuli\White20.jpg"	"cockroach"	"White"	"nose"	"Neg"	231	596	4	0	102	"W"	"M"	"Incon"	6.39024066706535	6.39024066706535	596
2	97	"C:\Experiments\Bartholow Lab\Hannah Volpert\stimuli\White18.jpg"	"cockroach"	"White"	"forehead"	"Neg"	211	544	4	0	102	"W"	"M"	"Incon"	6.29894924685594	6.29894924685594	544
2	98	"C:\Experiments\Bartholow Lab\Hannah Volpert\stimuli\Black1.jpg"	"vacation"	"Black"	"forehead"	"Pos"	112	489	5	0	102	"W"	"M"	"Incon"	6.19236248947487	6.19236248947487	489
2	99	"C:\Experiments\Bartholow Lab\Hannah Volpert\stimuli\Black15.jpg"	"love"	"Black"	"eyes"	"Pos"	122	476	5	0	102	"W"	"M"	"Incon"	6.16541785423142	6.16541785423142	476
2	100	"C:\Experiments\Bartholow Lab\Hannah Volpert\stimuli\Black20.jpg"	"paradise"	"Black"	"eyes"	"Pos"	122	480	5	0	102	"W"	"M"	"Incon"	6.17378610390194	6.17378610390194	480
2	101	"C:\Experiments\Bartholow Lab\Hannah Volpert\stimuli\White2.jpg"	"disgust"	"White"	"eyes"	"Neg"	221	499	4	0	102	"W"	"M"	"Incon"	6.21260609575152	6.21260609575152	499
2	102	"C:\Experiments\Bartholow Lab\Hannah Volpert\stimuli\White5.jpg"	"pest"	"White"	"nose"	"Neg"	231	504	4	0	102	"W"	"M"	"Incon"	6.22257626807137	6.22257626807137	504
2	103	"C:\Experiments\Bartholow Lab\Hannah Volpert\stimuli\White17.jpg"	"smile"	"White"	"nose"	"Pos"	232	462	5	0	102	"W"	"M"	"Con"	6.13556489108174	6.13556489108174	462
2	104	"C:\Experiments\Bartholow Lab\Hannah Volpert\stimuli\White1.jpg"	"beauty"	"White"	"eyes"	"Pos"	222	460	5	0	102	"W"	"M"	"Con"	6.13122648948314	6.13122648948314	460
2	105	"C:\Experiments\Bartholow Lab\Hannah Volpert\stimuli\Black23.jpg"	"disgust"	"Black"	"nose"	"Neg"	131	459	4	0	102	"W"	"M"	"Con"	6.12905021006055	6.12905021006055	459
2	106	"C:\Experiments\Bartholow Lab\Hannah Volpert\stimuli\White9.jpg"	"love"	"White"	"nose"	"Pos"	232	521	5	0	102	"W"	"M"	"Con"	6.25575004175337	6.25575004175337	521
2	107	"C:\Experiments\Bartholow Lab\Hannah Volpert\stimuli\Black5.jpg"	"vomit"	"Black"	"eyes"	"Neg"	121	530	4	0	102	"W"	"M"	"Con"	6.27287700654617	6.27287700654617	530
2	108	"C:\Experiments\Bartholow Lab\Hannah Volpert\stimuli\Black12.jpg"	"love"	"Black"	"forehead"	"Pos"	112	454	5	0	102	"W"	"M"	"Incon"	6.11809719804135	6.11809719804135	454
2	109	"C:\Experiments\Bartholow Lab\Hannah Volpert\stimuli\White15.jpg"	"cockroach"	"White"	"eyes"	"Neg"	221	545	4	0	102	"W"	"M"	"Incon"	6.30078579466324	6.30078579466324	545
2	110	"C:\Experiments\Bartholow Lab\Hannah Volpert\stimuli\White10.jpg"	"vacation"	"White"	"eyes"	"Pos"	222	587	5	0	102	"W"	"M"	"Con"	6.3750248198281	6.3750248198281	587
2	111	"C:\Experiments\Bartholow Lab\Hannah Volpert\stimuli\Black7.jpg"	"pest"	"Black"	"forehead"	"Neg"	111	501	4	0	102	"W"	"M"	"Con"	6.21660610108486	6.21660610108486	501
2	112	"C:\Experiments\Bartholow Lab\Hannah Volpert\stimuli\White10.jpg"	"despair"	"White"	"forehead"	"Neg"	211	584	4	0	102	"W"	"M"	"Incon"	6.36990098282823	6.36990098282823	584
2	113	"C:\Experiments\Bartholow Lab\Hannah Volpert\stimuli\White19.jpg"	"garbage"	"White"	"nose"	"Neg"	231	561	4	0	102	"W"	"M"	"Incon"	6.3297209055227	6.3297209055227	561
2	114	"C:\Experiments\Bartholow Lab\Hannah Volpert\stimuli\White19.jpg"	"vacation"	"White"	"eyes"	"Pos"	222	567	5	0	102	"W"	"M"	"Con"	6.34035930372775	6.34035930372775	567
2	115	"C:\Experiments\Bartholow Lab\Hannah Volpert\stimuli\White20.jpg"	"disgust"	"White"	"eyes"	"Neg"	221	451	4	0	102	"W"	"M"	"Incon"	6.11146733950268	6.11146733950268	451
2	116	"C:\Experiments\Bartholow Lab\Hannah Volpert\stimuli\White6.jpg"	"joy"	"White"	"forehead"	"Pos"	212	479	5	0	102	"W"	"M"	"Con"	6.17170059741091	6.17170059741091	479
2	117	"C:\Experiments\Bartholow Lab\Hannah Volpert\stimuli\White12.jpg"	"romance"	"White"	"eyes"	"Pos"	222	459	5	0	102	"W"	"M"	"Con"	6.12905021006055	6.12905021006055	459
2	118	"C:\Experiments\Bartholow Lab\Hannah Volpert\stimuli\White24.jpg"	"paradise"	"White"	"forehead"	"Pos"	212	695	5	0	102	"W"	"M"	"Con"	6.54391184556479	6.54391184556479	695
2	119	"C:\Experiments\Bartholow Lab\Hannah Volpert\stimuli\Black17.jpg"	"garbage"	"Black"	"eyes"	"Neg"	121	593	4	0	102	"W"	"M"	"Con"	6.38519439899773	6.38519439899773	593
2	120	"C:\Experiments\Bartholow Lab\Hannah Volpert\stimuli\Black24.jpg"	"joy"	"Black"	"nose"	"Pos"	132	492	5	0	102	"W"	"M"	"Incon"	6.19847871649231	6.19847871649231	492
2	121	"C:\Experiments\Bartholow Lab\Hannah Volpert\stimuli\White13.jpg"	"pest"	"White"	"forehead"	"Neg"	211	556	4	0	102	"W"	"M"	"Incon"	6.32076829425058	6.32076829425058	556
2	122	"C:\Experiments\Bartholow Lab\Hannah Volpert\stimuli\Black3.jpg"	"success"	"Black"	"forehead"	"Pos"	112	524	5	0	102	"W"	"M"	"Incon"	6.26149168432104	6.26149168432104	524
2	123	"C:\Experiments\Bartholow Lab\Hannah Volpert\stimuli\Black2.jpg"	"paradise"	"Black"	"nose"	"Pos"	132	743	5	0	102	"W"	"M"	"Incon"	6.61069604471776	6.61069604471776	743
2	124	"C:\Experiments\Bartholow Lab\Hannah Volpert\stimuli\White18.jpg"	"despair"	"White"	"eyes"	"Neg"	221	595	4	0	102	"W"	"M"	"Incon"	6.38856140554563	6.38856140554563	595
2	125	"C:\Experiments\Bartholow Lab\Hannah Volpert\stimuli\White4.jpg"	"despair"	"White"	"forehead"	"Neg"	211	516	4	0	102	"W"	"M"	"Incon"	6.24610676548156	6.24610676548156	516
2	126	"C:\Experiments\Bartholow Lab\Hannah Volpert\stimuli\White17.jpg"	"paradise"	"White"	"eyes"	"Pos"	222	480	4	1	102	"W"	"M"	"Con"	6.17378610390194	6.17378610390194	480
2	127	"C:\Experiments\Bartholow Lab\Hannah Volpert\stimuli\Black14.jpg"	"beauty"	"Black"	"forehead"	"Pos"	112	412	5	0	102	"W"	"M"	"Incon"	6.02102334934953	6.02102334934953	412
2	128	"C:\Experiments\Bartholow Lab\Hannah Volpert\stimuli\Black5.jpg"	"romance"	"Black"	"eyes"	"Pos"	122	514	5	0	102	"W"	"M"	"Incon"	6.24222326545517	6.24222326545517	514
2	129	"C:\Experiments\Bartholow Lab\Hannah Volpert\stimuli\Black21.jpg"	"despair"	"Black"	"nose"	"Neg"	131	512	4	0	102	"W"	"M"	"Con"	6.23832462503951	6.23832462503951	512
2	130	"C:\Experiments\Bartholow Lab\Hannah Volpert\stimuli\Black24.jpg"	"pest"	"Black"	"nose"	"Neg"	131	606	4	0	102	"W"	"M"	"Con"	6.40687998606931	6.40687998606931	606
2	131	"C:\Experiments\Bartholow Lab\Hannah Volpert\stimuli\Black7.jpg"	"success"	"Black"	"eyes"	"Pos"	122	474	5	0	102	"W"	"M"	"Incon"	6.16120732169508	6.16120732169508	474
2	132	"C:\Experiments\Bartholow Lab\Hannah Volpert\stimuli\White22.jpg"	"pest"	"White"	"nose"	"Neg"	231	568	4	0	102	"W"	"M"	"Incon"	6.34212141872115	6.34212141872115	568
2	133	"C:\Experiments\Bartholow Lab\Hannah Volpert\stimuli\Black16.jpg"	"vacation"	"Black"	"eyes"	"Pos"	122	617	5	0	102	"W"	"M"	"Incon"	6.42486902390539	6.42486902390539	617
2	134	"C:\Experiments\Bartholow Lab\Hannah Volpert\stimuli\Black21.jpg"	"joy"	"Black"	"nose"	"Pos"	132	573	5	0	102	"W"	"M"	"Incon"	6.35088571671474	6.35088571671474	573
2	135	"C:\Experiments\Bartholow Lab\Hannah Volpert\stimuli\White2.jpg"	"joy"	"White"	"eyes"	"Pos"	222	478	5	0	102	"W"	"M"	"Con"	6.16961073249146	6.16961073249146	478
2	136	"C:\Experiments\Bartholow Lab\Hannah Volpert\stimuli\White5.jpg"	"vacation"	"White"	"nose"	"Pos"	232	588	5	0	102	"W"	"M"	"Con"	6.37672694789863	6.37672694789863	588
2	137	"C:\Experiments\Bartholow Lab\Hannah Volpert\stimuli\White3.jpg"	"garbage"	"White"	"eyes"	"Neg"	221	469	4	0	102	"W"	"M"	"Incon"	6.15060276844628	6.15060276844628	469
2	138	"C:\Experiments\Bartholow Lab\Hannah Volpert\stimuli\White7.jpg"	"success"	"White"	"nose"	"Pos"	232	502	5	0	102	"W"	"M"	"Con"	6.21860011969173	6.21860011969173	502
2	139	"C:\Experiments\Bartholow Lab\Hannah Volpert\stimuli\Black19.jpg"	"paradise"	"Black"	"eyes"	"Pos"	122	828	5	0	102	"W"	"M"	"Incon"	6.71901315438526	6.71901315438526	828
2	140	"C:\Experiments\Bartholow Lab\Hannah Volpert\stimuli\Black2.jpg"	"pest"	"Black"	"eyes"	"Neg"	121	517	4	0	102	"W"	"M"	"Con"	6.24804287450843	6.24804287450843	517
2	141	"C:\Experiments\Bartholow Lab\Hannah Volpert\stimuli\White12.jpg"	"vacation"	"White"	"forehead"	"Pos"	212	686	5	0	102	"W"	"M"	"Con"	6.53087762772588	6.53087762772588	686
2	142	"C:\Experiments\Bartholow Lab\Hannah Volpert\stimuli\Black22.jpg"	"pest"	"Black"	"forehead"	"Neg"	111	489	4	0	102	"W"	"M"	"Con"	6.19236248947487	6.19236248947487	489
2	143	"C:\Experiments\Bartholow Lab\Hannah Volpert\stimuli\White18.jpg"	"joy"	"White"	"eyes"	"Pos"	222	549	5	0	102	"W"	"M"	"Con"	6.30809844150953	6.30809844150953	549
2	144	"C:\Experiments\Bartholow Lab\Hannah Volpert\stimuli\White8.jpg"	"pest"	"White"	"eyes"	"Neg"	221	534	4	0	102	"W"	"M"	"Incon"	6.2803958389602	6.2803958389602	534
2	145	"C:\Experiments\Bartholow Lab\Hannah Volpert\stimuli\Black22.jpg"	"romance"	"Black"	"forehead"	"Pos"	112	486	5	0	102	"W"	"M"	"Incon"	6.18620862390049	6.18620862390049	486
2	146	"C:\Experiments\Bartholow Lab\Hannah Volpert\stimuli\White8.jpg"	"love"	"White"	"forehead"	"Pos"	212	553	5	0	102	"W"	"M"	"Con"	6.31535800152233	6.31535800152233	553
2	147	"C:\Experiments\Bartholow Lab\Hannah Volpert\stimuli\White14.jpg"	"joy"	"White"	"nose"	"Pos"	232	544	5	0	102	"W"	"M"	"Con"	6.29894924685594	6.29894924685594	544
2	148	"C:\Experiments\Bartholow Lab\Hannah Volpert\stimuli\Black24.jpg"	"love"	"Black"	"forehead"	"Pos"	112	507	5	0	102	"W"	"M"	"Incon"	6.22851100359118	6.22851100359118	507
2	149	"C:\Experiments\Bartholow Lab\Hannah Volpert\stimuli\White1.jpg"	"sewage"	"White"	"nose"	"Neg"	231	660	4	0	102	"W"	"M"	"Incon"	6.49223983502047	6.49223983502047	660
2	150	"C:\Experiments\Bartholow Lab\Hannah Volpert\stimuli\Black6.jpg"	"vomit"	"Black"	"eyes"	"Neg"	121	635	4	0	102	"W"	"M"	"Con"	6.45362499889269	6.45362499889269	635
2	151	"C:\Experiments\Bartholow Lab\Hannah Volpert\stimuli\White7.jpg"	"disgust"	"White"	"forehead"	"Neg"	211	545	4	0	102	"W"	"M"	"Incon"	6.30078579466324	6.30078579466324	545
2	152	"C:\Experiments\Bartholow Lab\Hannah Volpert\stimuli\White6.jpg"	"paradise"	"White"	"nose"	"Pos"	232	658	5	0	102	"W"	"M"	"Con"	6.48920493132532	6.48920493132532	658
2	153	"C:\Experiments\Bartholow Lab\Hannah Volpert\stimuli\Black11.jpg"	"paradise"	"Black"	"forehead"	"Pos"	112	550	5	0	102	"W"	"M"	"Incon"	6.30991827822652	6.30991827822652	550
2	154	"C:\Experiments\Bartholow Lab\Hannah Volpert\stimuli\Black18.jpg"	"cockroach"	"Black"	"forehead"	"Neg"	111	487	4	0	102	"W"	"M"	"Con"	6.18826412308259	6.18826412308259	487
2	155	"C:\Experiments\Bartholow Lab\Hannah Volpert\stimuli\White9.jpg"	"cockroach"	"White"	"forehead"	"Neg"	211	538	4	0	102	"W"	"M"	"Incon"	6.28785856016178	6.28785856016178	538
2	156	"C:\Experiments\Bartholow Lab\Hannah Volpert\stimuli\Black24.jpg"	"cockroach"	"Black"	"forehead"	"Neg"	111	523	4	0	102	"W"	"M"	"Con"	6.25958146406492	6.25958146406492	523
2	157	"C:\Experiments\Bartholow Lab\Hannah Volpert\stimuli\Black3.jpg"	"sewage"	"Black"	"forehead"	"Neg"	111	657	4	0	102	"W"	"M"	"Con"	6.48768401848461	6.48768401848461	657
2	158	"C:\Experiments\Bartholow Lab\Hannah Volpert\stimuli\Black20.jpg"	"love"	"Black"	"nose"	"Pos"	132	490	5	0	102	"W"	"M"	"Incon"	6.19440539110467	6.19440539110467	490
2	159	"C:\Experiments\Bartholow Lab\Hannah Volpert\stimuli\White11.jpg"	"success"	"White"	"forehead"	"Pos"	212	636	5	0	102	"W"	"M"	"Con"	6.45519856334012	6.45519856334012	636
2	160	"C:\Experiments\Bartholow Lab\Hannah Volpert\stimuli\Black20.jpg"	"poison"	"Black"	"nose"	"Neg"	131	559	4	0	102	"W"	"M"	"Con"	6.3261494731551	6.3261494731551	559
2	161	"C:\Experiments\Bartholow Lab\Hannah Volpert\stimuli\White7.jpg"	"despair"	"White"	"eyes"	"Neg"	221	515	4	0	102	"W"	"M"	"Incon"	6.24416690066374	6.24416690066374	515
2	162	"C:\Experiments\Bartholow Lab\Hannah Volpert\stimuli\Black9.jpg"	"sewage"	"Black"	"forehead"	"Neg"	111	601	4	0	102	"W"	"M"	"Con"	6.39859493453521	6.39859493453521	601
2	163	"C:\Experiments\Bartholow Lab\Hannah Volpert\stimuli\Black5.jpg"	"despair"	"Black"	"forehead"	"Neg"	111	549	4	0	102	"W"	"M"	"Con"	6.30809844150953	6.30809844150953	549
2	164	"C:\Experiments\Bartholow Lab\Hannah Volpert\stimuli\Black12.jpg"	"vomit"	"Black"	"eyes"	"Neg"	121	533	4	0	102	"W"	"M"	"Con"	6.27852142416584	6.27852142416584	533
2	165	"C:\Experiments\Bartholow Lab\Hannah Volpert\stimuli\Black7.jpg"	"poison"	"Black"	"nose"	"Neg"	131	532	4	0	102	"W"	"M"	"Con"	6.27664348934164	6.27664348934164	532
2	166	"C:\Experiments\Bartholow Lab\Hannah Volpert\stimuli\Black6.jpg"	"sewage"	"Black"	"nose"	"Neg"	131	594	4	0	102	"W"	"M"	"Con"	6.38687931936265	6.38687931936265	594
2	167	"C:\Experiments\Bartholow Lab\Hannah Volpert\stimuli\White11.jpg"	"disgust"	"White"	"nose"	"Neg"	231	571	4	0	102	"W"	"M"	"Incon"	6.34738920965601	6.34738920965601	571
2	168	"C:\Experiments\Bartholow Lab\Hannah Volpert\stimuli\White15.jpg"	"love"	"White"	"forehead"	"Pos"	212	562	5	0	102	"W"	"M"	"Con"	6.33150184989369	6.33150184989369	562
2	169	"C:\Experiments\Bartholow Lab\Hannah Volpert\stimuli\Black13.jpg"	"sewage"	"Black"	"nose"	"Neg"	131	550	4	0	102	"W"	"M"	"Con"	6.30991827822652	6.30991827822652	550
2	170	"C:\Experiments\Bartholow Lab\Hannah Volpert\stimuli\Black11.jpg"	"despair"	"Black"	"nose"	"Neg"	131	513	4	0	102	"W"	"M"	"Con"	6.24027584517077	6.24027584517077	513
2	171	"C:\Experiments\Bartholow Lab\Hannah Volpert\stimuli\White14.jpg"	"smile"	"White"	"eyes"	"Pos"	222	511	5	0	102	"W"	"M"	"Con"	6.2363695902037	6.2363695902037	511
2	172	"C:\Experiments\Bartholow Lab\Hannah Volpert\stimuli\Black21.jpg"	"success"	"Black"	"forehead"	"Pos"	112	558	5	0	102	"W"	"M"	"Incon"	6.32435896238131	6.32435896238131	558
2	173	"C:\Experiments\Bartholow Lab\Hannah Volpert\stimuli\Black10.jpg"	"vacation"	"Black"	"forehead"	"Pos"	112	734	5	0	102	"W"	"M"	"Incon"	6.59850902861452	6.59850902861452	734
2	174	"C:\Experiments\Bartholow Lab\Hannah Volpert\stimuli\White10.jpg"	"paradise"	"White"	"nose"	"Pos"	232	706	5	0	102	"W"	"M"	"Con"	6.55961523749324	6.55961523749324	706
2	175	"C:\Experiments\Bartholow Lab\Hannah Volpert\stimuli\Black24.jpg"	"sewage"	"Black"	"eyes"	"Neg"	121	557	4	0	102	"W"	"M"	"Con"	6.32256523992728	6.32256523992728	557
2	176	"C:\Experiments\Bartholow Lab\Hannah Volpert\stimuli\White21.jpg"	"sewage"	"White"	"nose"	"Neg"	231	675	4	0	102	"W"	"M"	"Incon"	6.51471269087253	6.51471269087253	675
2	177	"C:\Experiments\Bartholow Lab\Hannah Volpert\stimuli\White22.jpg"	"pest"	"White"	"forehead"	"Neg"	211	745	4	0	102	"W"	"M"	"Incon"	6.61338421837956	6.61338421837956	745
2	178	"C:\Experiments\Bartholow Lab\Hannah Volpert\stimuli\Black14.jpg"	"disgust"	"Black"	"eyes"	"Neg"	121	610	4	0	102	"W"	"M"	"Con"	6.41345895716736	6.41345895716736	610
2	179	"C:\Experiments\Bartholow Lab\Hannah Volpert\stimuli\Black15.jpg"	"joy"	"Black"	"nose"	"Pos"	132	556	5	0	102	"W"	"M"	"Incon"	6.32076829425058	6.32076829425058	556
2	180	"C:\Experiments\Bartholow Lab\Hannah Volpert\stimuli\Black9.jpg"	"romance"	"Black"	"eyes"	"Pos"	122	652	5	0	102	"W"	"M"	"Incon"	6.48004456192665	6.48004456192665	652
2	181	"C:\Experiments\Bartholow Lab\Hannah Volpert\stimuli\White9.jpg"	"disgust"	"White"	"eyes"	"Neg"	221	563	4	0	102	"W"	"M"	"Incon"	6.33327962813969	6.33327962813969	563
2	182	"C:\Experiments\Bartholow Lab\Hannah Volpert\stimuli\Black8.jpg"	"love"	"Black"	"nose"	"Pos"	132	511	5	0	102	"W"	"M"	"Incon"	6.2363695902037	6.2363695902037	511
2	183	"C:\Experiments\Bartholow Lab\Hannah Volpert\stimuli\Black8.jpg"	"smile"	"Black"	"forehead"	"Pos"	112	551	5	0	102	"W"	"M"	"Incon"	6.31173480915291	6.31173480915291	551
2	184	"C:\Experiments\Bartholow Lab\Hannah Volpert\stimuli\White17.jpg"	"sewage"	"White"	"nose"	"Neg"	231	584	4	0	102	"W"	"M"	"Incon"	6.36990098282823	6.36990098282823	584
2	185	"C:\Experiments\Bartholow Lab\Hannah Volpert\stimuli\White4.jpg"	"cockroach"	"White"	"eyes"	"Neg"	221	538	4	0	102	"W"	"M"	"Incon"	6.28785856016178	6.28785856016178	538
2	186	"C:\Experiments\Bartholow Lab\Hannah Volpert\stimuli\Black10.jpg"	"love"	"Black"	"eyes"	"Pos"	122	683	5	0	102	"W"	"M"	"Incon"	6.52649485957079	6.52649485957079	683
2	187	"C:\Experiments\Bartholow Lab\Hannah Volpert\stimuli\Black18.jpg"	"romance"	"Black"	"nose"	"Pos"	132	614	5	0	102	"W"	"M"	"Incon"	6.41999492814714	6.41999492814714	614
2	188	"C:\Experiments\Bartholow Lab\Hannah Volpert\stimuli\White12.jpg"	"despair"	"White"	"forehead"	"Neg"	211	546	4	0	102	"W"	"M"	"Incon"	6.30261897574491	6.30261897574491	546
2	189	"C:\Experiments\Bartholow Lab\Hannah Volpert\stimuli\Black3.jpg"	"smile"	"Black"	"nose"	"Pos"	132	622	5	0	102	"W"	"M"	"Incon"	6.43294009273918	6.43294009273918	622
2	190	"C:\Experiments\Bartholow Lab\Hannah Volpert\stimuli\Black16.jpg"	"pest"	"Black"	"eyes"	"Neg"	121	460	4	0	102	"W"	"M"	"Con"	6.13122648948314	6.13122648948314	460
2	191	"C:\Experiments\Bartholow Lab\Hannah Volpert\stimuli\White16.jpg"	"success"	"White"	"forehead"	"Pos"	212	602	5	0	102	"W"	"M"	"Con"	6.40025744530882	6.40025744530882	602
2	192	"C:\Experiments\Bartholow Lab\Hannah Volpert\stimuli\Black14.jpg"	"cockroach"	"Black"	"nose"	"Neg"	131	582	4	0	102	"W"	"M"	"Con"	6.36647044773144	6.36647044773144	582
2	193	"C:\Experiments\Bartholow Lab\Hannah Volpert\stimuli\Black10.jpg"	"beauty"	"Black"	"nose"	"Pos"	132	588	5	0	102	"W"	"M"	"Incon"	6.37672694789863	6.37672694789863	588
2	194	"C:\Experiments\Bartholow Lab\Hannah Volpert\stimuli\White8.jpg"	"vomit"	"White"	"nose"	"Neg"	231	629	4	0	102	"W"	"M"	"Incon"	6.44413125670044	6.44413125670044	629
2	195	"C:\Experiments\Bartholow Lab\Hannah Volpert\stimuli\White17.jpg"	"vomit"	"White"	"eyes"	"Neg"	221	566	4	0	102	"W"	"M"	"Incon"	6.33859407820318	6.33859407820318	566
2	196	"C:\Experiments\Bartholow Lab\Hannah Volpert\stimuli\White8.jpg"	"garbage"	"White"	"forehead"	"Neg"	211	617	4	0	102	"W"	"M"	"Incon"	6.42486902390539	6.42486902390539	617
2	197	"C:\Experiments\Bartholow Lab\Hannah Volpert\stimuli\White5.jpg"	"garbage"	"White"	"eyes"	"Neg"	221	599	4	0	102	"W"	"M"	"Incon"	6.39526159811545	6.39526159811545	599
2	198	"C:\Experiments\Bartholow Lab\Hannah Volpert\stimuli\Black7.jpg"	"beauty"	"Black"	"nose"	"Pos"	132	547	5	0	102	"W"	"M"	"Incon"	6.30444880242198	6.30444880242198	547
2	199	"C:\Experiments\Bartholow Lab\Hannah Volpert\stimuli\Black19.jpg"	"beauty"	"Black"	"nose"	"Pos"	132	580	5	0	102	"W"	"M"	"Incon"	6.36302810354046	6.36302810354046	580
2	200	"C:\Experiments\Bartholow Lab\Hannah Volpert\stimuli\Black12.jpg"	"pest"	"Black"	"forehead"	"Neg"	111	455	4	0	102	"W"	"M"	"Con"	6.12029741895095	6.12029741895095	455
2	201	"C:\Experiments\Bartholow Lab\Hannah Volpert\stimuli\White19.jpg"	"romance"	"White"	"forehead"	"Pos"	212	507	5	0	102	"W"	"M"	"Con"	6.22851100359118	6.22851100359118	507
2	202	"C:\Experiments\Bartholow Lab\Hannah Volpert\stimuli\Black22.jpg"	"vomit"	"Black"	"eyes"	"Neg"	121	532	4	0	102	"W"	"M"	"Con"	6.27664348934164	6.27664348934164	532
2	203	"C:\Experiments\Bartholow Lab\Hannah Volpert\stimuli\White18.jpg"	"poison"	"White"	"nose"	"Neg"	231	583	4	0	102	"W"	"M"	"Incon"	6.36818718635049	6.36818718635049	583
2	204	"C:\Experiments\Bartholow Lab\Hannah Volpert\stimuli\Black13.jpg"	"success"	"Black"	"nose"	"Pos"	132	701	5	0	102	"W"	"M"	"Incon"	6.55250788703459	6.55250788703459	701
2	205	"C:\Experiments\Bartholow Lab\Hannah Volpert\stimuli\Black9.jpg"	"joy"	"Black"	"nose"	"Pos"	132	652	5	0	102	"W"	"M"	"Incon"	6.48004456192665	6.48004456192665	652
2	206	"C:\Experiments\Bartholow Lab\Hannah Volpert\stimuli\Black6.jpg"	"paradise"	"Black"	"forehead"	"Pos"	112	738	5	0	102	"W"	"M"	"Incon"	6.60394382460047	6.60394382460047	738
2	207	"C:\Experiments\Bartholow Lab\Hannah Volpert\stimuli\Black12.jpg"	"cockroach"	"Black"	"nose"	"Neg"	131	600	4	0	102	"W"	"M"	"Con"	6.39692965521615	6.39692965521615	600
2	208	"C:\Experiments\Bartholow Lab\Hannah Volpert\stimuli\Black14.jpg"	"success"	"Black"	"eyes"	"Pos"	122	561	5	0	102	"W"	"M"	"Incon"	6.3297209055227	6.3297209055227	561
2	209	"C:\Experiments\Bartholow Lab\Hannah Volpert\stimuli\Black9.jpg"	"success"	"Black"	"forehead"	"Pos"	112	578	5	0	102	"W"	"M"	"Incon"	6.35957386867238	6.35957386867238	578
2	210	"C:\Experiments\Bartholow Lab\Hannah Volpert\stimuli\Black17.jpg"	"success"	"Black"	"forehead"	"Pos"	112	485	5	0	102	"W"	"M"	"Incon"	6.18414889093748	6.18414889093748	485
2	211	"C:\Experiments\Bartholow Lab\Hannah Volpert\stimuli\Black1.jpg"	"cockroach"	"Black"	"eyes"	"Neg"	121	516	4	0	102	"W"	"M"	"Con"	6.24610676548156	6.24610676548156	516
2	212	"C:\Experiments\Bartholow Lab\Hannah Volpert\stimuli\White6.jpg"	"cockroach"	"White"	"nose"	"Neg"	231	556	4	0	102	"W"	"M"	"Incon"	6.32076829425058	6.32076829425058	556
2	213	"C:\Experiments\Bartholow Lab\Hannah Volpert\stimuli\Black3.jpg"	"disgust"	"Black"	"eyes"	"Neg"	121	488	4	0	102	"W"	"M"	"Con"	6.19031540585315	6.19031540585315	488
2	214	"C:\Experiments\Bartholow Lab\Hannah Volpert\stimuli\Black4.jpg"	"garbage"	"Black"	"nose"	"Neg"	131	620	4	0	102	"W"	"M"	"Con"	6.42971947803914	6.42971947803914	620
2	215	"C:\Experiments\Bartholow Lab\Hannah Volpert\stimuli\White23.jpg"	"success"	"White"	"eyes"	"Pos"	222	674	5	0	102	"W"	"M"	"Con"	6.51323011091231	6.51323011091231	674
2	216	"C:\Experiments\Bartholow Lab\Hannah Volpert\stimuli\Black20.jpg"	"vomit"	"Black"	"eyes"	"Neg"	121	606	4	0	102	"W"	"M"	"Con"	6.40687998606931	6.40687998606931	606
2	217	"C:\Experiments\Bartholow Lab\Hannah Volpert\stimuli\Black16.jpg"	"garbage"	"Black"	"forehead"	"Neg"	111	472	4	0	102	"W"	"M"	"Con"	6.15697898558556	6.15697898558556	472
2	218	"C:\Experiments\Bartholow Lab\Hannah Volpert\stimuli\Black20.jpg"	"disgust"	"Black"	"forehead"	"Neg"	111	635	4	0	102	"W"	"M"	"Con"	6.45362499889269	6.45362499889269	635
2	219	"C:\Experiments\Bartholow Lab\Hannah Volpert\stimuli\Black12.jpg"	"paradise"	"Black"	"nose"	"Pos"	132	444	4	1	102	"W"	"M"	"Incon"	6.09582456243222	6.09582456243222	444
2	220	"C:\Experiments\Bartholow Lab\Hannah Volpert\stimuli\White11.jpg"	"love"	"White"	"nose"	"Pos"	232	472	5	0	102	"W"	"M"	"Con"	6.15697898558556	6.15697898558556	472
2	221	"C:\Experiments\Bartholow Lab\Hannah Volpert\stimuli\White2.jpg"	"romance"	"White"	"nose"	"Pos"	232	646	5	0	102	"W"	"M"	"Con"	6.4707995037826	6.4707995037826	646
2	222	"C:\Experiments\Bartholow Lab\Hannah Volpert\stimuli\White10.jpg"	"beauty"	"White"	"forehead"	"Pos"	212	585	5	0	102	"W"	"M"	"Con"	6.37161184723186	6.37161184723186	585
2	223	"C:\Experiments\Bartholow Lab\Hannah Volpert\stimuli\White2.jpg"	"paradise"	"White"	"forehead"	"Pos"	212	546	5	0	102	"W"	"M"	"Con"	6.30261897574491	6.30261897574491	546
2	224	"C:\Experiments\Bartholow Lab\Hannah Volpert\stimuli\White14.jpg"	"poison"	"White"	"forehead"	"Neg"	211	585	4	0	102	"W"	"M"	"Incon"	6.37161184723186	6.37161184723186	585
2	225	"C:\Experiments\Bartholow Lab\Hannah Volpert\stimuli\White15.jpg"	"vacation"	"White"	"nose"	"Pos"	232	671	5	0	102	"W"	"M"	"Con"	6.50876913697168	6.50876913697168	671
2	226	"C:\Experiments\Bartholow Lab\Hannah Volpert\stimuli\White6.jpg"	"poison"	"White"	"eyes"	"Neg"	221	568	4	0	102	"W"	"M"	"Incon"	6.34212141872115	6.34212141872115	568
2	227	"C:\Experiments\Bartholow Lab\Hannah Volpert\stimuli\White23.jpg"	"disgust"	"White"	"forehead"	"Neg"	211	931	4	0	102	"W"	"M"	"Incon"	6.83625927727707	6.78776143728751	884.480897213258
2	228	"C:\Experiments\Bartholow Lab\Hannah Volpert\stimuli\White18.jpg"	"beauty"	"White"	"forehead"	"Pos"	212	498	5	0	102	"W"	"M"	"Con"	6.21060007702465	6.21060007702465	498
2	229	"C:\Experiments\Bartholow Lab\Hannah Volpert\stimuli\White24.jpg"	"cockroach"	"White"	"forehead"	"Neg"	211	581	4	0	102	"W"	"M"	"Incon"	6.36475075685191	6.36475075685191	581
2	230	"C:\Experiments\Bartholow Lab\Hannah Volpert\stimuli\Black14.jpg"	"smile"	"Black"	"nose"	"Pos"	132	475	5	0	102	"W"	"M"	"Incon"	6.16331480403464	6.16331480403464	475
2	231	"C:\Experiments\Bartholow Lab\Hannah Volpert\stimuli\Black12.jpg"	"romance"	"Black"	"eyes"	"Pos"	122	585	5	0	102	"W"	"M"	"Incon"	6.37161184723186	6.37161184723186	585
2	232	"C:\Experiments\Bartholow Lab\Hannah Volpert\stimuli\Black22.jpg"	"poison"	"Black"	"nose"	"Neg"	131	450	4	0	102	"W"	"M"	"Con"	6.10924758276437	6.10924758276437	450
2	233	"C:\Experiments\Bartholow Lab\Hannah Volpert\stimuli\White9.jpg"	"sewage"	"White"	"nose"	"Neg"	231	651	4	0	102	"W"	"M"	"Incon"	6.47850964220857	6.47850964220857	651
2	234	"C:\Experiments\Bartholow Lab\Hannah Volpert\stimuli\Black11.jpg"	"smile"	"Black"	"eyes"	"Pos"	122	521	5	0	102	"W"	"M"	"Incon"	6.25575004175337	6.25575004175337	521
2	235	"C:\Experiments\Bartholow Lab\Hannah Volpert\stimuli\White4.jpg"	"love"	"White"	"nose"	"Pos"	232	533	5	0	102	"W"	"M"	"Con"	6.27852142416584	6.27852142416584	533
2	236	"C:\Experiments\Bartholow Lab\Hannah Volpert\stimuli\White13.jpg"	"beauty"	"White"	"nose"	"Pos"	232	515	5	0	102	"W"	"M"	"Con"	6.24416690066374	6.24416690066374	515
2	237	"C:\Experiments\Bartholow Lab\Hannah Volpert\stimuli\White3.jpg"	"vacation"	"White"	"eyes"	"Pos"	222	543	5	0	102	"W"	"M"	"Con"	6.29710931993394	6.29710931993394	543
2	238	"C:\Experiments\Bartholow Lab\Hannah Volpert\stimuli\White1.jpg"	"pest"	"White"	"eyes"	"Neg"	221	687	4	0	102	"W"	"M"	"Incon"	6.53233429222235	6.53233429222235	687
2	239	"C:\Experiments\Bartholow Lab\Hannah Volpert\stimuli\Black18.jpg"	"poison"	"Black"	"nose"	"Neg"	131	571	4	0	102	"W"	"M"	"Con"	6.34738920965601	6.34738920965601	571
2	240	"C:\Experiments\Bartholow Lab\Hannah Volpert\stimuli\White13.jpg"	"sewage"	"White"	"nose"	"Neg"	231	511	4	0	102	"W"	"M"	"Incon"	6.2363695902037	6.2363695902037	511
2	241	"C:\Experiments\Bartholow Lab\Hannah Volpert\stimuli\White19.jpg"	"disgust"	"White"	"forehead"	"Neg"	211	618	4	0	102	"W"	"M"	"Incon"	6.42648845745769	6.42648845745769	618
2	242	"C:\Experiments\Bartholow Lab\Hannah Volpert\stimuli\White16.jpg"	"romance"	"White"	"eyes"	"Pos"	222	504	5	0	102	"W"	"M"	"Con"	6.22257626807137	6.22257626807137	504
2	243	"C:\Experiments\Bartholow Lab\Hannah Volpert\stimuli\Black15.jpg"	"despair"	"Black"	"eyes"	"Neg"	121	590	4	0	102	"W"	"M"	"Con"	6.38012253689976	6.38012253689976	590
2	244	"C:\Experiments\Bartholow Lab\Hannah Volpert\stimuli\White14.jpg"	"smile"	"White"	"forehead"	"Pos"	212	490	5	0	102	"W"	"M"	"Con"	6.19440539110467	6.19440539110467	490
2	245	"C:\Experiments\Bartholow Lab\Hannah Volpert\stimuli\Black5.jpg"	"beauty"	"Black"	"nose"	"Pos"	132	510	5	0	102	"W"	"M"	"Incon"	6.23441072571837	6.23441072571837	510
2	246	"C:\Experiments\Bartholow Lab\Hannah Volpert\stimuli\Black21.jpg"	"cockroach"	"Black"	"eyes"	"Neg"	121	562	4	0	102	"W"	"M"	"Con"	6.33150184989369	6.33150184989369	562
2	247	"C:\Experiments\Bartholow Lab\Hannah Volpert\stimuli\White12.jpg"	"success"	"White"	"nose"	"Pos"	232	518	5	0	102	"W"	"M"	"Con"	6.24997524225948	6.24997524225948	518
2	248	"C:\Experiments\Bartholow Lab\Hannah Volpert\stimuli\White4.jpg"	"disgust"	"White"	"nose"	"Neg"	231	574	4	0	102	"W"	"M"	"Incon"	6.35262939631957	6.35262939631957	574
2	249	"C:\Experiments\Bartholow Lab\Hannah Volpert\stimuli\White7.jpg"	"vacation"	"White"	"forehead"	"Pos"	212	560	5	0	102	"W"	"M"	"Con"	6.32793678372919	6.32793678372919	560
2	250	"C:\Experiments\Bartholow Lab\Hannah Volpert\stimuli\White3.jpg"	"smile"	"White"	"nose"	"Pos"	232	739	5	0	102	"W"	"M"	"Con"	6.6052979209482	6.6052979209482	739
2	251	"C:\Experiments\Bartholow Lab\Hannah Volpert\stimuli\Black9.jpg"	"vomit"	"Black"	"eyes"	"Neg"	121	522	4	0	102	"W"	"M"	"Con"	6.25766758788264	6.25766758788264	522
2	252	"C:\Experiments\Bartholow Lab\Hannah Volpert\stimuli\Black11.jpg"	"smile"	"Black"	"nose"	"Pos"	132	610	5	0	102	"W"	"M"	"Incon"	6.41345895716736	6.41345895716736	610
2	253	"C:\Experiments\Bartholow Lab\Hannah Volpert\stimuli\White2.jpg"	"poison"	"White"	"forehead"	"Neg"	211	534	4	0	102	"W"	"M"	"Incon"	6.2803958389602	6.2803958389602	534
2	254	"C:\Experiments\Bartholow Lab\Hannah Volpert\stimuli\Black2.jpg"	"joy"	"Black"	"forehead"	"Pos"	112	439	5	0	102	"W"	"M"	"Incon"	6.08449941307517	6.08449941307517	439
2	255	"C:\Experiments\Bartholow Lab\Hannah Volpert\stimuli\White8.jpg"	"beauty"	"White"	"nose"	"Pos"	232	723	5	0	102	"W"	"M"	"Con"	6.58340922215876	6.58340922215876	723
2	256	"C:\Experiments\Bartholow Lab\Hannah Volpert\stimuli\Black11.jpg"	"garbage"	"Black"	"forehead"	"Neg"	111	532	4	0	102	"W"	"M"	"Con"	6.27664348934164	6.27664348934164	532
2	257	"C:\Experiments\Bartholow Lab\Hannah Volpert\stimuli\Black19.jpg"	"garbage"	"Black"	"nose"	"Neg"	131	573	4	0	102	"W"	"M"	"Con"	6.35088571671474	6.35088571671474	573
2	258	"C:\Experiments\Bartholow Lab\Hannah Volpert\stimuli\Black18.jpg"	"sewage"	"Black"	"eyes"	"Neg"	121	551	4	0	102	"W"	"M"	"Con"	6.31173480915291	6.31173480915291	551
2	259	"C:\Experiments\Bartholow Lab\Hannah Volpert\stimuli\Black19.jpg"	"vomit"	"Black"	"eyes"	"Neg"	121	527	4	0	102	"W"	"M"	"Con"	6.26720054854136	6.26720054854136	527
2	260	"C:\Experiments\Bartholow Lab\Hannah Volpert\stimuli\Black11.jpg"	"poison"	"Black"	"eyes"	"Neg"	121	565	4	0	102	"W"	"M"	"Con"	6.33682573114644	6.33682573114644	565
2	261	"C:\Experiments\Bartholow Lab\Hannah Volpert\stimuli\White23.jpg"	"poison"	"White"	"nose"	"Neg"	231	625	4	0	102	"W"	"M"	"Incon"	6.4377516497364	6.4377516497364	625
2	262	"C:\Experiments\Bartholow Lab\Hannah Volpert\stimuli\White21.jpg"	"paradise"	"White"	"eyes"	"Pos"	222	743	5	0	102	"W"	"M"	"Con"	6.61069604471776	6.61069604471776	743
2	263	"C:\Experiments\Bartholow Lab\Hannah Volpert\stimuli\Black5.jpg"	"love"	"Black"	"forehead"	"Pos"	112	736	5	0	102	"W"	"M"	"Incon"	6.60123011872888	6.60123011872888	736
2	264	"C:\Experiments\Bartholow Lab\Hannah Volpert\stimuli\Black23.jpg"	"paradise"	"Black"	"forehead"	"Pos"	112	577	5	0	102	"W"	"M"	"Incon"	6.3578422665081	6.3578422665081	577
2	265	"C:\Experiments\Bartholow Lab\Hannah Volpert\stimuli\Black19.jpg"	"disgust"	"Black"	"forehead"	"Neg"	111	487	4	0	102	"W"	"M"	"Con"	6.18826412308259	6.18826412308259	487
2	266	"C:\Experiments\Bartholow Lab\Hannah Volpert\stimuli\Black13.jpg"	"poison"	"Black"	"eyes"	"Neg"	121	587	4	0	102	"W"	"M"	"Con"	6.3750248198281	6.3750248198281	587
2	267	"C:\Experiments\Bartholow Lab\Hannah Volpert\stimuli\Black3.jpg"	"poison"	"Black"	"nose"	"Neg"	131	590	4	0	102	"W"	"M"	"Con"	6.38012253689976	6.38012253689976	590
2	268	"C:\Experiments\Bartholow Lab\Hannah Volpert\stimuli\Black23.jpg"	"despair"	"Black"	"eyes"	"Neg"	121	538	4	0	102	"W"	"M"	"Con"	6.28785856016178	6.28785856016178	538
2	269	"C:\Experiments\Bartholow Lab\Hannah Volpert\stimuli\Black18.jpg"	"beauty"	"Black"	"eyes"	"Pos"	122	555	5	0	102	"W"	"M"	"Incon"	6.31896811374643	6.31896811374643	555
2	270	"C:\Experiments\Bartholow Lab\Hannah Volpert\stimuli\White10.jpg"	"poison"	"White"	"nose"	"Neg"	231	460	4	0	102	"W"	"M"	"Incon"	6.13122648948314	6.13122648948314	460
2	271	"C:\Experiments\Bartholow Lab\Hannah Volpert\stimuli\White16.jpg"	"disgust"	"White"	"forehead"	"Neg"	211	538	4	0	102	"W"	"M"	"Incon"	6.28785856016178	6.28785856016178	538
2	272	"C:\Experiments\Bartholow Lab\Hannah Volpert\stimuli\Black16.jpg"	"romance"	"Black"	"nose"	"Pos"	132	424	5	0	102	"W"	"M"	"Incon"	6.04973345523196	6.04973345523196	424
2	273	"C:\Experiments\Bartholow Lab\Hannah Volpert\stimuli\Black13.jpg"	"garbage"	"Black"	"forehead"	"Neg"	111	526	4	0	102	"W"	"M"	"Con"	6.26530121273771	6.26530121273771	526
2	274	"C:\Experiments\Bartholow Lab\Hannah Volpert\stimuli\White24.jpg"	"smile"	"White"	"eyes"	"Pos"	222	535	5	0	102	"W"	"M"	"Con"	6.28226674689601	6.28226674689601	535
2	275	"C:\Experiments\Bartholow Lab\Hannah Volpert\stimuli\Black2.jpg"	"vomit"	"Black"	"forehead"	"Neg"	111	533	4	0	102	"W"	"M"	"Con"	6.27852142416584	6.27852142416584	533
2	276	"C:\Experiments\Bartholow Lab\Hannah Volpert\stimuli\Black16.jpg"	"beauty"	"Black"	"forehead"	"Pos"	112	564	5	0	102	"W"	"M"	"Incon"	6.33505425149806	6.33505425149806	564
2	277	"C:\Experiments\Bartholow Lab\Hannah Volpert\stimuli\Black23.jpg"	"garbage"	"Black"	"forehead"	"Neg"	111	400	4	0	102	"W"	"M"	"Con"	5.99146454710798	5.99146454710798	400
2	278	"C:\Experiments\Bartholow Lab\Hannah Volpert\stimuli\Black1.jpg"	"beauty"	"Black"	"nose"	"Pos"	132	542	5	0	102	"W"	"M"	"Incon"	6.29526600143965	6.29526600143965	542
2	279	"C:\Experiments\Bartholow Lab\Hannah Volpert\stimuli\White6.jpg"	"sewage"	"White"	"forehead"	"Neg"	211	572	4	0	102	"W"	"M"	"Incon"	6.3491389913798	6.3491389913798	572
2	280	"C:\Experiments\Bartholow Lab\Hannah Volpert\stimuli\White21.jpg"	"smile"	"White"	"forehead"	"Pos"	212	471	5	0	102	"W"	"M"	"Con"	6.15485809401642	6.15485809401642	471
2	281	"C:\Experiments\Bartholow Lab\Hannah Volpert\stimuli\Black16.jpg"	"vomit"	"Black"	"nose"	"Neg"	131	518	4	0	102	"W"	"M"	"Con"	6.24997524225948	6.24997524225948	518
2	282	"C:\Experiments\Bartholow Lab\Hannah Volpert\stimuli\Black1.jpg"	"despair"	"Black"	"nose"	"Neg"	131	535	4	0	102	"W"	"M"	"Con"	6.28226674689601	6.28226674689601	535
2	283	"C:\Experiments\Bartholow Lab\Hannah Volpert\stimuli\Black15.jpg"	"paradise"	"Black"	"forehead"	"Pos"	112	491	4	1	102	"W"	"M"	"Incon"	6.19644412779452	6.19644412779452	491
2	284	"C:\Experiments\Bartholow Lab\Hannah Volpert\stimuli\Black23.jpg"	"beauty"	"Black"	"nose"	"Pos"	132	574	5	0	102	"W"	"M"	"Incon"	6.35262939631957	6.35262939631957	574
2	285	"C:\Experiments\Bartholow Lab\Hannah Volpert\stimuli\Black10.jpg"	"pest"	"Black"	"nose"	"Neg"	131	564	4	0	102	"W"	"M"	"Con"	6.33505425149806	6.33505425149806	564
2	286	"C:\Experiments\Bartholow Lab\Hannah Volpert\stimuli\Black22.jpg"	"vacation"	"Black"	"eyes"	"Pos"	122	616	5	0	102	"W"	"M"	"Incon"	6.42324696353352	6.42324696353352	616
2	287	"C:\Experiments\Bartholow Lab\Hannah Volpert\stimuli\Black10.jpg"	"disgust"	"Black"	"forehead"	"Neg"	111	694	4	0	102	"W"	"M"	"Con"	6.5424719605068	6.5424719605068	694
2	288	"C:\Experiments\Bartholow Lab\Hannah Volpert\stimuli\White14.jpg"	"poison"	"White"	"eyes"	"Neg"	221	634	4	0	102	"W"	"M"	"Incon"	6.45204895443723	6.45204895443723	634
2	1	"C:\Experiments\Bartholow Lab\Hannah Volpert\stimuli\White12.jpg"	"vomit"	"White"	"eyes"	"Neg"	221	609	4	0	103	"W"	"M"	"Incon"	6.4118182677099	6.4118182677099	609
2	2	"C:\Experiments\Bartholow Lab\Hannah Volpert\stimuli\White9.jpg"	"disgust"	"White"	"forehead"	"Neg"	211	588	4	0	103	"W"	"M"	"Incon"	6.37672694789863	6.37672694789863	588
2	3	"C:\Experiments\Bartholow Lab\Hannah Volpert\stimuli\White23.jpg"	"sewage"	"White"	"eyes"	"Neg"	221	637	4	0	103	"W"	"M"	"Incon"	6.45676965557216	6.45676965557216	637
2	4	"C:\Experiments\Bartholow Lab\Hannah Volpert\stimuli\White12.jpg"	"disgust"	"White"	"forehead"	"Neg"	211	556	4	0	103	"W"	"M"	"Incon"	6.32076829425058	6.32076829425058	556
2	5	"C:\Experiments\Bartholow Lab\Hannah Volpert\stimuli\Black11.jpg"	"despair"	"Black"	"eyes"	"Neg"	121	504	4	0	103	"W"	"M"	"Con"	6.22257626807137	6.22257626807137	504
