"Block"	"Trial"	"FaceFilename"	"WordFilename"	"Race"	"Fix"	"WordValence"	"Condition"	"RT"	"Key"	"Error"	"Subno"	"Congruent"
2	1	"C:\Experiments\Bartholow Lab\Hannah Volpert\stimuli\Black8.jpg"	"paradise"	"1"	"forehead"	"2"	"112"	889	5	"0"	1	"0"
2	2	"C:\Experiments\Bartholow Lab\Hannah Volpert\stimuli\Black24.jpg"	"poison"	"1"	"forehead"	"1"	"111"	898	4	"0"	1	"1"
2	3	"C:\Experiments\Bartholow Lab\Hannah Volpert\stimuli\White15.jpg"	"success"	"2"	"forehead"	"2"	"212"	750	5	"0"	1	"1"
2	4	"C:\Experiments\Bartholow Lab\Hannah Volpert\stimuli\Black16.jpg"	"disgust"	"1"	"nose"	"1"	"131"	748	4	"0"	1	"1"
2	5	"C:\Experiments\Bartholow Lab\Hannah Volpert\stimuli\White19.jpg"	"vomit"	"2"	"forehead"	"1"	"211"	996.307067557158	4	"0"	1	"0"
2	6	"C:\Experiments\Bartholow Lab\Hannah Volpert\stimuli\White17.jpg"	"cockroach"	"2"	"eyes"	"1"	"221"	996.307067557158	4	"0"	1	"0"
2	7	"C:\Experiments\Bartholow Lab\Hannah Volpert\stimuli\Black12.jpg"	"despair"	"1"	"eyes"	"1"	"121"	773	4	"0"	1	"1"
2	8	"C:\Experiments\Bartholow Lab\Hannah Volpert\stimuli\White14.jpg"	"pest"	"2"	"nose"	"1"	"231"	779	4	"0"	1	"0"
2	9	"C:\Experiments\Bartholow Lab\Hannah Volpert\stimuli\White24.jpg"	"vacation"	"2"	"eyes"	"2"	"222"	921	5	"0"	1	"1"
2	10	"C:\Experiments\Bartholow Lab\Hannah Volpert\stimuli\White16.jpg"	"romance"	"2"	"forehead"	"2"	"212"	728	5	"0"	1	"1"
2	11	"C:\Experiments\Bartholow Lab\Hannah Volpert\stimuli\White14.jpg"	"beauty"	"2"	"eyes"	"2"	"222"	723	5	"0"	1	"1"
2	12	"C:\Experiments\Bartholow Lab\Hannah Volpert\stimuli\White11.jpg"	"vomit"	"2"	"forehead"	"1"	"211"	588	4	"0"	1	"0"
2	13	"C:\Experiments\Bartholow Lab\Hannah Volpert\stimuli\Black3.jpg"	"smile"	"1"	"forehead"	"2"	"112"	578	5	"0"	1	"0"
2	14	"C:\Experiments\Bartholow Lab\Hannah Volpert\stimuli\White11.jpg"	"beauty"	"2"	"eyes"	"2"	"222"	569	5	"0"	1	"1"
2	15	"C:\Experiments\Bartholow Lab\Hannah Volpert\stimuli\White24.jpg"	"pest"	"2"	"nose"	"1"	"231"	948	4	"0"	1	"0"
2	16	"C:\Experiments\Bartholow Lab\Hannah Volpert\stimuli\White13.jpg"	"smile"	"2"	"forehead"	"2"	"212"	677	5	"0"	1	"1"
2	17	"C:\Experiments\Bartholow Lab\Hannah Volpert\stimuli\Black16.jpg"	"romance"	"1"	"eyes"	"2"	"122"	510	5	"0"	1	"0"
2	18	"C:\Experiments\Bartholow Lab\Hannah Volpert\stimuli\White2.jpg"	"love"	"2"	"forehead"	"2"	"212"	535	5	"0"	1	"1"
2	19	"C:\Experiments\Bartholow Lab\Hannah Volpert\stimuli\Black4.jpg"	"disgust"	"1"	"forehead"	"1"	"111"	555	4	"0"	1	"1"
2	20	"C:\Experiments\Bartholow Lab\Hannah Volpert\stimuli\White9.jpg"	"romance"	"2"	"eyes"	"2"	"222"	606	5	"0"	1	"1"
2	21	"C:\Experiments\Bartholow Lab\Hannah Volpert\stimuli\White1.jpg"	"smile"	"2"	"nose"	"2"	"232"	589	5	"0"	1	"1"
2	22	"C:\Experiments\Bartholow Lab\Hannah Volpert\stimuli\White2.jpg"	"despair"	"2"	"nose"	"1"	"231"	741	4	"0"	1	"0"
2	23	"C:\Experiments\Bartholow Lab\Hannah Volpert\stimuli\White21.jpg"	"poison"	"2"	"forehead"	"1"	"211"	721	4	"0"	1	"0"
2	24	"C:\Experiments\Bartholow Lab\Hannah Volpert\stimuli\White20.jpg"	"paradise"	"2"	"eyes"	"2"	"222"	655	5	"0"	1	"1"
2	25	"C:\Experiments\Bartholow Lab\Hannah Volpert\stimuli\Black15.jpg"	"smile"	"1"	"forehead"	"2"	"112"	566	5	"0"	1	"0"
2	26	"C:\Experiments\Bartholow Lab\Hannah Volpert\stimuli\White22.jpg"	"vomit"	"2"	"nose"	"1"	"231"	550	5	"1"	1	"0"
2	27	"C:\Experiments\Bartholow Lab\Hannah Volpert\stimuli\Black3.jpg"	"smile"	"1"	"nose"	"2"	"132"	996.307067557158	5	"0"	1	"0"
2	28	"C:\Experiments\Bartholow Lab\Hannah Volpert\stimuli\Black21.jpg"	"smile"	"1"	"eyes"	"2"	"122"	643	5	"0"	1	"0"
2	29	"C:\Experiments\Bartholow Lab\Hannah Volpert\stimuli\Black22.jpg"	"paradise"	"1"	"eyes"	"2"	"122"	633	5	"0"	1	"0"
2	30	"C:\Experiments\Bartholow Lab\Hannah Volpert\stimuli\White12.jpg"	"sewage"	"2"	"forehead"	"1"	"211"	762	4	"0"	1	"0"
2	31	"C:\Experiments\Bartholow Lab\Hannah Volpert\stimuli\Black13.jpg"	"paradise"	"1"	"eyes"	"2"	"122"	600	5	"0"	1	"0"
2	32	"C:\Experiments\Bartholow Lab\Hannah Volpert\stimuli\White16.jpg"	"garbage"	"2"	"forehead"	"1"	"211"	836	4	"0"	1	"0"
2	33	"C:\Experiments\Bartholow Lab\Hannah Volpert\stimuli\White12.jpg"	"disgust"	"2"	"nose"	"1"	"231"	669	4	"0"	1	"0"
2	34	"C:\Experiments\Bartholow Lab\Hannah Volpert\stimuli\Black1.jpg"	"paradise"	"1"	"forehead"	"2"	"112"	996.307067557158	5	"0"	1	"0"
2	35	"C:\Experiments\Bartholow Lab\Hannah Volpert\stimuli\Black23.jpg"	"joy"	"1"	"eyes"	"2"	"122"	642	5	"0"	1	"0"
2	36	"C:\Experiments\Bartholow Lab\Hannah Volpert\stimuli\Black1.jpg"	"despair"	"1"	"eyes"	"1"	"121"	576	4	"0"	1	"1"
2	37	"C:\Experiments\Bartholow Lab\Hannah Volpert\stimuli\White3.jpg"	"disgust"	"2"	"forehead"	"1"	"211"	582	4	"0"	1	"0"
2	38	"C:\Experiments\Bartholow Lab\Hannah Volpert\stimuli\Black6.jpg"	"garbage"	"1"	"eyes"	"1"	"121"	751	4	"0"	1	"1"
2	39	"C:\Experiments\Bartholow Lab\Hannah Volpert\stimuli\Black2.jpg"	"vacation"	"1"	"eyes"	"2"	"122"	635	5	"0"	1	"0"
2	40	"C:\Experiments\Bartholow Lab\Hannah Volpert\stimuli\Black13.jpg"	"garbage"	"1"	"eyes"	"1"	"121"	686	4	"0"	1	"1"
2	41	"C:\Experiments\Bartholow Lab\Hannah Volpert\stimuli\White23.jpg"	"success"	"2"	"eyes"	"2"	"222"	516	5	"0"	1	"1"
2	42	"C:\Experiments\Bartholow Lab\Hannah Volpert\stimuli\White10.jpg"	"disgust"	"2"	"forehead"	"1"	"211"	768	4	"0"	1	"0"
2	43	"C:\Experiments\Bartholow Lab\Hannah Volpert\stimuli\White2.jpg"	"paradise"	"2"	"eyes"	"2"	"222"	681	5	"0"	1	"1"
2	44	"C:\Experiments\Bartholow Lab\Hannah Volpert\stimuli\Black11.jpg"	"success"	"1"	"nose"	"2"	"132"	594	5	"0"	1	"0"
2	45	"C:\Experiments\Bartholow Lab\Hannah Volpert\stimuli\White10.jpg"	"garbage"	"2"	"nose"	"1"	"231"	651	4	"0"	1	"0"
2	46	"C:\Experiments\Bartholow Lab\Hannah Volpert\stimuli\Black16.jpg"	"cockroach"	"1"	"eyes"	"1"	"121"	622	4	"0"	1	"1"
2	47	"C:\Experiments\Bartholow Lab\Hannah Volpert\stimuli\White17.jpg"	"love"	"2"	"eyes"	"2"	"222"	559	5	"0"	1	"1"
2	48	"C:\Experiments\Bartholow Lab\Hannah Volpert\stimuli\White19.jpg"	"romance"	"2"	"forehead"	"2"	"212"	565	5	"0"	1	"1"
2	49	"C:\Experiments\Bartholow Lab\Hannah Volpert\stimuli\White8.jpg"	"beauty"	"2"	"forehead"	"2"	"212"	556	5	"0"	1	"1"
2	50	"C:\Experiments\Bartholow Lab\Hannah Volpert\stimuli\Black15.jpg"	"despair"	"1"	"eyes"	"1"	"121"	557	4	"0"	1	"1"
2	51	"C:\Experiments\Bartholow Lab\Hannah Volpert\stimuli\Black17.jpg"	"paradise"	"1"	"nose"	"2"	"132"	539	5	"0"	1	"0"
2	52	"C:\Experiments\Bartholow Lab\Hannah Volpert\stimuli\White23.jpg"	"poison"	"2"	"forehead"	"1"	"211"	593	4	"0"	1	"0"
2	53	"C:\Experiments\Bartholow Lab\Hannah Volpert\stimuli\Black4.jpg"	"pest"	"1"	"eyes"	"1"	"121"	717	4	"0"	1	"1"
2	54	"C:\Experiments\Bartholow Lab\Hannah Volpert\stimuli\Black9.jpg"	"garbage"	"1"	"forehead"	"1"	"111"	608	4	"0"	1	"1"
2	55	"C:\Experiments\Bartholow Lab\Hannah Volpert\stimuli\White7.jpg"	"poison"	"2"	"forehead"	"1"	"211"	670	4	"0"	1	"0"
2	56	"C:\Experiments\Bartholow Lab\Hannah Volpert\stimuli\Black10.jpg"	"beauty"	"1"	"nose"	"2"	"132"	826	5	"0"	1	"0"
2	57	"C:\Experiments\Bartholow Lab\Hannah Volpert\stimuli\White16.jpg"	"joy"	"2"	"eyes"	"2"	"222"	563	5	"0"	1	"1"
2	58	"C:\Experiments\Bartholow Lab\Hannah Volpert\stimuli\White7.jpg"	"disgust"	"2"	"eyes"	"1"	"221"	777	4	"0"	1	"0"
2	59	"C:\Experiments\Bartholow Lab\Hannah Volpert\stimuli\White6.jpg"	"joy"	"2"	"eyes"	"2"	"222"	522	5	"0"	1	"1"
2	60	"C:\Experiments\Bartholow Lab\Hannah Volpert\stimuli\Black19.jpg"	"vacation"	"1"	"eyes"	"2"	"122"	517	5	"0"	1	"0"
2	61	"C:\Experiments\Bartholow Lab\Hannah Volpert\stimuli\Black23.jpg"	"cockroach"	"1"	"forehead"	"1"	"111"	510	4	"0"	1	"1"
2	62	"C:\Experiments\Bartholow Lab\Hannah Volpert\stimuli\White18.jpg"	"beauty"	"2"	"eyes"	"2"	"222"	541	5	"0"	1	"1"
2	63	"C:\Experiments\Bartholow Lab\Hannah Volpert\stimuli\Black7.jpg"	"vacation"	"1"	"nose"	"2"	"132"	475	5	"0"	1	"0"
2	64	"C:\Experiments\Bartholow Lab\Hannah Volpert\stimuli\Black14.jpg"	"vacation"	"1"	"nose"	"2"	"132"	604	5	"0"	1	"0"
2	65	"C:\Experiments\Bartholow Lab\Hannah Volpert\stimuli\Black1.jpg"	"love"	"1"	"nose"	"2"	"132"	514	5	"0"	1	"0"
2	66	"C:\Experiments\Bartholow Lab\Hannah Volpert\stimuli\Black20.jpg"	"sewage"	"1"	"nose"	"1"	"131"	736	4	"0"	1	"1"
2	67	"C:\Experiments\Bartholow Lab\Hannah Volpert\stimuli\White13.jpg"	"joy"	"2"	"eyes"	"2"	"222"	521	5	"0"	1	"1"
2	68	"C:\Experiments\Bartholow Lab\Hannah Volpert\stimuli\Black10.jpg"	"vacation"	"1"	"eyes"	"2"	"122"	773	5	"0"	1	"0"
2	69	"C:\Experiments\Bartholow Lab\Hannah Volpert\stimuli\White4.jpg"	"romance"	"2"	"eyes"	"2"	"222"	533	5	"0"	1	"1"
2	70	"C:\Experiments\Bartholow Lab\Hannah Volpert\stimuli\White11.jpg"	"paradise"	"2"	"nose"	"2"	"232"	580	5	"0"	1	"1"
2	71	"C:\Experiments\Bartholow Lab\Hannah Volpert\stimuli\White2.jpg"	"pest"	"2"	"eyes"	"1"	"221"	554	4	"0"	1	"0"
2	72	"C:\Experiments\Bartholow Lab\Hannah Volpert\stimuli\White6.jpg"	"poison"	"2"	"forehead"	"1"	"211"	747	4	"0"	1	"0"
2	73	"C:\Experiments\Bartholow Lab\Hannah Volpert\stimuli\White18.jpg"	"despair"	"2"	"eyes"	"1"	"221"	715	4	"0"	1	"0"
2	74	"C:\Experiments\Bartholow Lab\Hannah Volpert\stimuli\White4.jpg"	"smile"	"2"	"nose"	"2"	"232"	508	5	"0"	1	"1"
2	75	"C:\Experiments\Bartholow Lab\Hannah Volpert\stimuli\White7.jpg"	"cockroach"	"2"	"nose"	"1"	"231"	581	4	"0"	1	"0"
2	76	"C:\Experiments\Bartholow Lab\Hannah Volpert\stimuli\Black7.jpg"	"poison"	"1"	"forehead"	"1"	"111"	747	4	"0"	1	"1"
2	77	"C:\Experiments\Bartholow Lab\Hannah Volpert\stimuli\Black14.jpg"	"vacation"	"1"	"forehead"	"2"	"112"	583	5	"0"	1	"0"
2	78	"C:\Experiments\Bartholow Lab\Hannah Volpert\stimuli\Black16.jpg"	"sewage"	"1"	"forehead"	"1"	"111"	605	4	"0"	1	"1"
2	79	"C:\Experiments\Bartholow Lab\Hannah Volpert\stimuli\Black22.jpg"	"pest"	"1"	"forehead"	"1"	"111"	601	4	"0"	1	"1"
2	80	"C:\Experiments\Bartholow Lab\Hannah Volpert\stimuli\Black17.jpg"	"poison"	"1"	"eyes"	"1"	"121"	498	4	"0"	1	"1"
2	81	"C:\Experiments\Bartholow Lab\Hannah Volpert\stimuli\Black19.jpg"	"vacation"	"1"	"nose"	"2"	"132"	552	5	"0"	1	"0"
2	82	"C:\Experiments\Bartholow Lab\Hannah Volpert\stimuli\White6.jpg"	"vomit"	"2"	"eyes"	"1"	"221"	681	4	"0"	1	"0"
2	83	"C:\Experiments\Bartholow Lab\Hannah Volpert\stimuli\Black12.jpg"	"pest"	"1"	"forehead"	"1"	"111"	532	4	"0"	1	"1"
2	84	"C:\Experiments\Bartholow Lab\Hannah Volpert\stimuli\White21.jpg"	"cockroach"	"2"	"eyes"	"1"	"221"	501	4	"0"	1	"0"
2	85	"C:\Experiments\Bartholow Lab\Hannah Volpert\stimuli\Black6.jpg"	"poison"	"1"	"forehead"	"1"	"111"	553	4	"0"	1	"1"
2	86	"C:\Experiments\Bartholow Lab\Hannah Volpert\stimuli\White23.jpg"	"despair"	"2"	"nose"	"1"	"231"	737	4	"0"	1	"0"
2	87	"C:\Experiments\Bartholow Lab\Hannah Volpert\stimuli\Black24.jpg"	"vacation"	"1"	"forehead"	"2"	"112"	573	5	"0"	1	"0"
2	88	"C:\Experiments\Bartholow Lab\Hannah Volpert\stimuli\Black2.jpg"	"disgust"	"1"	"nose"	"1"	"131"	547	4	"0"	1	"1"
2	89	"C:\Experiments\Bartholow Lab\Hannah Volpert\stimuli\White22.jpg"	"paradise"	"2"	"nose"	"2"	"232"	756	5	"0"	1	"1"
2	90	"C:\Experiments\Bartholow Lab\Hannah Volpert\stimuli\White15.jpg"	"despair"	"2"	"eyes"	"1"	"221"	589	4	"0"	1	"0"
2	91	"C:\Experiments\Bartholow Lab\Hannah Volpert\stimuli\White15.jpg"	"disgust"	"2"	"forehead"	"1"	"211"	534	4	"0"	1	"0"
2	92	"C:\Experiments\Bartholow Lab\Hannah Volpert\stimuli\Black7.jpg"	"sewage"	"1"	"eyes"	"1"	"121"	612	4	"0"	1	"1"
2	93	"C:\Experiments\Bartholow Lab\Hannah Volpert\stimuli\Black13.jpg"	"sewage"	"1"	"nose"	"1"	"131"	578	4	"0"	1	"1"
2	94	"C:\Experiments\Bartholow Lab\Hannah Volpert\stimuli\White12.jpg"	"beauty"	"2"	"forehead"	"2"	"212"	505	5	"0"	1	"1"
2	95	"C:\Experiments\Bartholow Lab\Hannah Volpert\stimuli\Black12.jpg"	"vomit"	"1"	"nose"	"1"	"131"	495	5	"1"	1	"1"
2	96	"C:\Experiments\Bartholow Lab\Hannah Volpert\stimuli\Black1.jpg"	"vomit"	"1"	"forehead"	"1"	"111"	962	4	"0"	1	"1"
2	97	"C:\Experiments\Bartholow Lab\Hannah Volpert\stimuli\White23.jpg"	"garbage"	"2"	"eyes"	"1"	"221"	574	4	"0"	1	"0"
2	98	"C:\Experiments\Bartholow Lab\Hannah Volpert\stimuli\Black11.jpg"	"disgust"	"1"	"nose"	"1"	"131"	527	4	"0"	1	"1"
2	99	"C:\Experiments\Bartholow Lab\Hannah Volpert\stimuli\Black5.jpg"	"vacation"	"1"	"eyes"	"2"	"122"	685	5	"0"	1	"0"
2	100	"C:\Experiments\Bartholow Lab\Hannah Volpert\stimuli\Black21.jpg"	"poison"	"1"	"forehead"	"1"	"111"	574	4	"0"	1	"1"
2	101	"C:\Experiments\Bartholow Lab\Hannah Volpert\stimuli\Black8.jpg"	"success"	"1"	"nose"	"2"	"132"	788	5	"0"	1	"0"
2	102	"C:\Experiments\Bartholow Lab\Hannah Volpert\stimuli\Black18.jpg"	"vomit"	"1"	"nose"	"1"	"131"	629	4	"0"	1	"1"
2	103	"C:\Experiments\Bartholow Lab\Hannah Volpert\stimuli\White19.jpg"	"success"	"2"	"eyes"	"2"	"222"	953	5	"0"	1	"1"
2	104	"C:\Experiments\Bartholow Lab\Hannah Volpert\stimuli\White22.jpg"	"cockroach"	"2"	"eyes"	"1"	"221"	650	4	"0"	1	"0"
2	105	"C:\Experiments\Bartholow Lab\Hannah Volpert\stimuli\White13.jpg"	"cockroach"	"2"	"forehead"	"1"	"211"	651	4	"0"	1	"0"
2	106	"C:\Experiments\Bartholow Lab\Hannah Volpert\stimuli\White21.jpg"	"vomit"	"2"	"nose"	"1"	"231"	580	4	"0"	1	"0"
2	107	"C:\Experiments\Bartholow Lab\Hannah Volpert\stimuli\White24.jpg"	"sewage"	"2"	"forehead"	"1"	"211"	682	4	"0"	1	"0"
2	108	"C:\Experiments\Bartholow Lab\Hannah Volpert\stimuli\White18.jpg"	"smile"	"2"	"forehead"	"2"	"212"	747	5	"0"	1	"1"
2	109	"C:\Experiments\Bartholow Lab\Hannah Volpert\stimuli\Black7.jpg"	"smile"	"1"	"eyes"	"2"	"122"	516	5	"0"	1	"0"
2	110	"C:\Experiments\Bartholow Lab\Hannah Volpert\stimuli\Black11.jpg"	"success"	"1"	"eyes"	"2"	"122"	599	5	"0"	1	"0"
2	111	"C:\Experiments\Bartholow Lab\Hannah Volpert\stimuli\White7.jpg"	"success"	"2"	"nose"	"2"	"232"	691	5	"0"	1	"1"
2	112	"C:\Experiments\Bartholow Lab\Hannah Volpert\stimuli\White10.jpg"	"joy"	"2"	"nose"	"2"	"232"	590	5	"0"	1	"1"
2	113	"C:\Experiments\Bartholow Lab\Hannah Volpert\stimuli\Black1.jpg"	"romance"	"1"	"eyes"	"2"	"122"	594	5	"0"	1	"0"
2	114	"C:\Experiments\Bartholow Lab\Hannah Volpert\stimuli\White15.jpg"	"vomit"	"2"	"nose"	"1"	"231"	683	4	"0"	1	"0"
2	115	"C:\Experiments\Bartholow Lab\Hannah Volpert\stimuli\Black19.jpg"	"disgust"	"1"	"eyes"	"1"	"121"	966	4	"0"	1	"1"
2	116	"C:\Experiments\Bartholow Lab\Hannah Volpert\stimuli\White3.jpg"	"garbage"	"2"	"eyes"	"1"	"221"	970	4	"0"	1	"0"
2	117	"C:\Experiments\Bartholow Lab\Hannah Volpert\stimuli\White15.jpg"	"love"	"2"	"eyes"	"2"	"222"	606	5	"0"	1	"1"
2	118	"C:\Experiments\Bartholow Lab\Hannah Volpert\stimuli\White5.jpg"	"beauty"	"2"	"nose"	"2"	"232"	556	5	"0"	1	"1"
2	119	"C:\Experiments\Bartholow Lab\Hannah Volpert\stimuli\Black4.jpg"	"romance"	"1"	"nose"	"2"	"132"	639	5	"0"	1	"0"
2	120	"C:\Experiments\Bartholow Lab\Hannah Volpert\stimuli\Black3.jpg"	"joy"	"1"	"eyes"	"2"	"122"	494	5	"0"	1	"0"
2	121	"C:\Experiments\Bartholow Lab\Hannah Volpert\stimuli\Black3.jpg"	"sewage"	"1"	"nose"	"1"	"131"	663	4	"0"	1	"1"
2	122	"C:\Experiments\Bartholow Lab\Hannah Volpert\stimuli\White10.jpg"	"paradise"	"2"	"forehead"	"2"	"212"	733	5	"0"	1	"1"
2	123	"C:\Experiments\Bartholow Lab\Hannah Volpert\stimuli\Black20.jpg"	"paradise"	"1"	"nose"	"2"	"132"	822	5	"0"	1	"0"
2	124	"C:\Experiments\Bartholow Lab\Hannah Volpert\stimuli\Black24.jpg"	"romance"	"1"	"nose"	"2"	"132"	639	5	"0"	1	"0"
2	125	"C:\Experiments\Bartholow Lab\Hannah Volpert\stimuli\Black9.jpg"	"love"	"1"	"forehead"	"2"	"112"	608	5	"0"	1	"0"
2	126	"C:\Experiments\Bartholow Lab\Hannah Volpert\stimuli\White5.jpg"	"sewage"	"2"	"eyes"	"1"	"221"	524	4	"0"	1	"0"
2	127	"C:\Experiments\Bartholow Lab\Hannah Volpert\stimuli\Black24.jpg"	"despair"	"1"	"eyes"	"1"	"121"	602	4	"0"	1	"1"
2	128	"C:\Experiments\Bartholow Lab\Hannah Volpert\stimuli\Black6.jpg"	"success"	"1"	"forehead"	"2"	"112"	565	5	"0"	1	"0"
2	129	"C:\Experiments\Bartholow Lab\Hannah Volpert\stimuli\Black17.jpg"	"pest"	"1"	"nose"	"1"	"131"	582	4	"0"	1	"1"
2	130	"C:\Experiments\Bartholow Lab\Hannah Volpert\stimuli\Black2.jpg"	"beauty"	"1"	"nose"	"2"	"132"	604	5	"0"	1	"0"
2	131	"C:\Experiments\Bartholow Lab\Hannah Volpert\stimuli\Black16.jpg"	"paradise"	"1"	"nose"	"2"	"132"	635	5	"0"	1	"0"
2	132	"C:\Experiments\Bartholow Lab\Hannah Volpert\stimuli\White4.jpg"	"pest"	"2"	"forehead"	"1"	"211"	612	4	"0"	1	"0"
2	133	"C:\Experiments\Bartholow Lab\Hannah Volpert\stimuli\White17.jpg"	"paradise"	"2"	"nose"	"2"	"232"	562	5	"0"	1	"1"
2	134	"C:\Experiments\Bartholow Lab\Hannah Volpert\stimuli\Black9.jpg"	"romance"	"1"	"nose"	"2"	"132"	566	5	"0"	1	"0"
2	135	"C:\Experiments\Bartholow Lab\Hannah Volpert\stimuli\White11.jpg"	"pest"	"2"	"eyes"	"1"	"221"	620	4	"0"	1	"0"
2	136	"C:\Experiments\Bartholow Lab\Hannah Volpert\stimuli\White14.jpg"	"poison"	"2"	"eyes"	"1"	"221"	655	4	"0"	1	"0"
2	137	"C:\Experiments\Bartholow Lab\Hannah Volpert\stimuli\White12.jpg"	"love"	"2"	"eyes"	"2"	"222"	710	5	"0"	1	"1"
2	138	"C:\Experiments\Bartholow Lab\Hannah Volpert\stimuli\Black5.jpg"	"vomit"	"1"	"nose"	"1"	"131"	615	4	"0"	1	"1"
2	139	"C:\Experiments\Bartholow Lab\Hannah Volpert\stimuli\Black2.jpg"	"pest"	"1"	"forehead"	"1"	"111"	837	4	"0"	1	"1"
2	140	"C:\Experiments\Bartholow Lab\Hannah Volpert\stimuli\White8.jpg"	"vacation"	"2"	"nose"	"2"	"232"	766	5	"0"	1	"1"
2	141	"C:\Experiments\Bartholow Lab\Hannah Volpert\stimuli\White4.jpg"	"vacation"	"2"	"forehead"	"2"	"212"	697	5	"0"	1	"1"
2	142	"C:\Experiments\Bartholow Lab\Hannah Volpert\stimuli\White23.jpg"	"joy"	"2"	"nose"	"2"	"232"	960	5	"0"	1	"1"
2	143	"C:\Experiments\Bartholow Lab\Hannah Volpert\stimuli\White3.jpg"	"romance"	"2"	"eyes"	"2"	"222"	611	5	"0"	1	"1"
2	144	"C:\Experiments\Bartholow Lab\Hannah Volpert\stimuli\White1.jpg"	"vomit"	"2"	"forehead"	"1"	"211"	655	4	"0"	1	"0"
2	145	"C:\Experiments\Bartholow Lab\Hannah Volpert\stimuli\White5.jpg"	"garbage"	"2"	"forehead"	"1"	"211"	937	4	"0"	1	"0"
2	146	"C:\Experiments\Bartholow Lab\Hannah Volpert\stimuli\White5.jpg"	"vomit"	"2"	"nose"	"1"	"231"	519	4	"0"	1	"0"
2	147	"C:\Experiments\Bartholow Lab\Hannah Volpert\stimuli\Black18.jpg"	"sewage"	"1"	"forehead"	"1"	"111"	515	4	"0"	1	"1"
2	148	"C:\Experiments\Bartholow Lab\Hannah Volpert\stimuli\White1.jpg"	"sewage"	"2"	"nose"	"1"	"231"	492	4	"0"	1	"0"
2	149	"C:\Experiments\Bartholow Lab\Hannah Volpert\stimuli\White6.jpg"	"sewage"	"2"	"nose"	"1"	"231"	415	4	"0"	1	"0"
2	150	"C:\Experiments\Bartholow Lab\Hannah Volpert\stimuli\White14.jpg"	"romance"	"2"	"forehead"	"2"	"212"	683	5	"0"	1	"1"
2	151	"C:\Experiments\Bartholow Lab\Hannah Volpert\stimuli\Black6.jpg"	"beauty"	"1"	"eyes"	"2"	"122"	550	5	"0"	1	"0"
2	152	"C:\Experiments\Bartholow Lab\Hannah Volpert\stimuli\Black15.jpg"	"love"	"1"	"nose"	"2"	"132"	519	5	"0"	1	"0"
2	153	"C:\Experiments\Bartholow Lab\Hannah Volpert\stimuli\White17.jpg"	"vacation"	"2"	"forehead"	"2"	"212"	501	5	"0"	1	"1"
2	154	"C:\Experiments\Bartholow Lab\Hannah Volpert\stimuli\White5.jpg"	"paradise"	"2"	"forehead"	"2"	"212"	587	5	"0"	1	"1"
2	155	"C:\Experiments\Bartholow Lab\Hannah Volpert\stimuli\Black16.jpg"	"success"	"1"	"forehead"	"2"	"112"	498	5	"0"	1	"0"
2	156	"C:\Experiments\Bartholow Lab\Hannah Volpert\stimuli\White6.jpg"	"love"	"2"	"forehead"	"2"	"212"	789	5	"0"	1	"1"
2	157	"C:\Experiments\Bartholow Lab\Hannah Volpert\stimuli\Black8.jpg"	"romance"	"1"	"eyes"	"2"	"122"	502	5	"0"	1	"0"
2	158	"C:\Experiments\Bartholow Lab\Hannah Volpert\stimuli\White20.jpg"	"pest"	"2"	"forehead"	"1"	"211"	580	4	"0"	1	"0"
2	159	"C:\Experiments\Bartholow Lab\Hannah Volpert\stimuli\White19.jpg"	"success"	"2"	"nose"	"2"	"232"	525	5	"0"	1	"1"
2	160	"C:\Experiments\Bartholow Lab\Hannah Volpert\stimuli\White20.jpg"	"disgust"	"2"	"eyes"	"1"	"221"	545	4	"0"	1	"0"
2	161	"C:\Experiments\Bartholow Lab\Hannah Volpert\stimuli\Black15.jpg"	"beauty"	"1"	"eyes"	"2"	"122"	591	5	"0"	1	"0"
2	162	"C:\Experiments\Bartholow Lab\Hannah Volpert\stimuli\White17.jpg"	"disgust"	"2"	"nose"	"1"	"231"	504	4	"0"	1	"0"
2	163	"C:\Experiments\Bartholow Lab\Hannah Volpert\stimuli\White23.jpg"	"love"	"2"	"forehead"	"2"	"212"	518	5	"0"	1	"1"
2	164	"C:\Experiments\Bartholow Lab\Hannah Volpert\stimuli\Black23.jpg"	"beauty"	"1"	"forehead"	"2"	"112"	495	5	"0"	1	"0"
2	165	"C:\Experiments\Bartholow Lab\Hannah Volpert\stimuli\White7.jpg"	"smile"	"2"	"forehead"	"2"	"212"	645	5	"0"	1	"1"
2	166	"C:\Experiments\Bartholow Lab\Hannah Volpert\stimuli\Black2.jpg"	"poison"	"1"	"eyes"	"1"	"121"	537	4	"0"	1	"1"
2	167	"C:\Experiments\Bartholow Lab\Hannah Volpert\stimuli\Black2.jpg"	"success"	"1"	"forehead"	"2"	"112"	580	5	"0"	1	"0"
2	168	"C:\Experiments\Bartholow Lab\Hannah Volpert\stimuli\Black15.jpg"	"vomit"	"1"	"forehead"	"1"	"111"	490	4	"0"	1	"1"
2	169	"C:\Experiments\Bartholow Lab\Hannah Volpert\stimuli\White18.jpg"	"garbage"	"2"	"nose"	"1"	"231"	499	4	"0"	1	"0"
2	170	"C:\Experiments\Bartholow Lab\Hannah Volpert\stimuli\White8.jpg"	"love"	"2"	"eyes"	"2"	"222"	535	5	"0"	1	"1"
2	171	"C:\Experiments\Bartholow Lab\Hannah Volpert\stimuli\Black8.jpg"	"despair"	"1"	"forehead"	"1"	"111"	725	4	"0"	1	"1"
2	172	"C:\Experiments\Bartholow Lab\Hannah Volpert\stimuli\Black4.jpg"	"garbage"	"1"	"nose"	"1"	"131"	715	4	"0"	1	"1"
2	173	"C:\Experiments\Bartholow Lab\Hannah Volpert\stimuli\Black5.jpg"	"cockroach"	"1"	"forehead"	"1"	"111"	524	4	"0"	1	"1"
2	174	"C:\Experiments\Bartholow Lab\Hannah Volpert\stimuli\White20.jpg"	"romance"	"2"	"forehead"	"2"	"212"	464	5	"0"	1	"1"
2	175	"C:\Experiments\Bartholow Lab\Hannah Volpert\stimuli\Black12.jpg"	"joy"	"1"	"eyes"	"2"	"122"	782	5	"0"	1	"0"
2	176	"C:\Experiments\Bartholow Lab\Hannah Volpert\stimuli\Black10.jpg"	"poison"	"1"	"nose"	"1"	"131"	588	4	"0"	1	"1"
2	177	"C:\Experiments\Bartholow Lab\Hannah Volpert\stimuli\White15.jpg"	"vacation"	"2"	"nose"	"2"	"232"	613	5	"0"	1	"1"
2	178	"C:\Experiments\Bartholow Lab\Hannah Volpert\stimuli\White9.jpg"	"success"	"2"	"forehead"	"2"	"212"	579	5	"0"	1	"1"
2	179	"C:\Experiments\Bartholow Lab\Hannah Volpert\stimuli\White24.jpg"	"romance"	"2"	"forehead"	"2"	"212"	553	5	"0"	1	"1"
2	180	"C:\Experiments\Bartholow Lab\Hannah Volpert\stimuli\Black21.jpg"	"vomit"	"1"	"eyes"	"1"	"121"	640	4	"0"	1	"1"
2	181	"C:\Experiments\Bartholow Lab\Hannah Volpert\stimuli\White20.jpg"	"love"	"2"	"nose"	"2"	"232"	523	5	"0"	1	"1"
2	182	"C:\Experiments\Bartholow Lab\Hannah Volpert\stimuli\Black7.jpg"	"joy"	"1"	"forehead"	"2"	"112"	551	5	"0"	1	"0"
2	183	"C:\Experiments\Bartholow Lab\Hannah Volpert\stimuli\White22.jpg"	"beauty"	"2"	"eyes"	"2"	"222"	616	5	"0"	1	"1"
2	184	"C:\Experiments\Bartholow Lab\Hannah Volpert\stimuli\Black14.jpg"	"poison"	"1"	"eyes"	"1"	"121"	470	4	"0"	1	"1"
2	185	"C:\Experiments\Bartholow Lab\Hannah Volpert\stimuli\White24.jpg"	"disgust"	"2"	"eyes"	"1"	"221"	487	4	"0"	1	"0"
2	186	"C:\Experiments\Bartholow Lab\Hannah Volpert\stimuli\White7.jpg"	"romance"	"2"	"eyes"	"2"	"222"	730	5	"0"	1	"1"
2	187	"C:\Experiments\Bartholow Lab\Hannah Volpert\stimuli\White1.jpg"	"success"	"2"	"eyes"	"2"	"222"	782	5	"0"	1	"1"
2	188	"C:\Experiments\Bartholow Lab\Hannah Volpert\stimuli\Black5.jpg"	"paradise"	"1"	"forehead"	"2"	"112"	668	5	"0"	1	"0"
2	189	"C:\Experiments\Bartholow Lab\Hannah Volpert\stimuli\White4.jpg"	"disgust"	"2"	"eyes"	"1"	"221"	517	4	"0"	1	"0"
2	190	"C:\Experiments\Bartholow Lab\Hannah Volpert\stimuli\White16.jpg"	"sewage"	"2"	"nose"	"1"	"231"	510	4	"0"	1	"0"
2	191	"C:\Experiments\Bartholow Lab\Hannah Volpert\stimuli\Black20.jpg"	"romance"	"1"	"forehead"	"2"	"112"	521	5	"0"	1	"0"
2	192	"C:\Experiments\Bartholow Lab\Hannah Volpert\stimuli\Black19.jpg"	"despair"	"1"	"forehead"	"1"	"111"	597	4	"0"	1	"1"
2	193	"C:\Experiments\Bartholow Lab\Hannah Volpert\stimuli\Black17.jpg"	"smile"	"1"	"forehead"	"2"	"112"	475	5	"0"	1	"0"
2	194	"C:\Experiments\Bartholow Lab\Hannah Volpert\stimuli\White18.jpg"	"pest"	"2"	"forehead"	"1"	"211"	513	4	"0"	1	"0"
2	195	"C:\Experiments\Bartholow Lab\Hannah Volpert\stimuli\White20.jpg"	"despair"	"2"	"nose"	"1"	"231"	543	4	"0"	1	"0"
2	196	"C:\Experiments\Bartholow Lab\Hannah Volpert\stimuli\White10.jpg"	"poison"	"2"	"eyes"	"1"	"221"	654	4	"0"	1	"0"
2	197	"C:\Experiments\Bartholow Lab\Hannah Volpert\stimuli\Black7.jpg"	"cockroach"	"1"	"nose"	"1"	"131"	500	4	"0"	1	"1"
2	198	"C:\Experiments\Bartholow Lab\Hannah Volpert\stimuli\White22.jpg"	"garbage"	"2"	"forehead"	"1"	"211"	490	4	"0"	1	"0"
2	199	"C:\Experiments\Bartholow Lab\Hannah Volpert\stimuli\Black12.jpg"	"smile"	"1"	"forehead"	"2"	"112"	622	5	"0"	1	"0"
2	200	"C:\Experiments\Bartholow Lab\Hannah Volpert\stimuli\Black20.jpg"	"love"	"1"	"eyes"	"2"	"122"	593	5	"0"	1	"0"
2	201	"C:\Experiments\Bartholow Lab\Hannah Volpert\stimuli\Black15.jpg"	"pest"	"1"	"nose"	"1"	"131"	586	4	"0"	1	"1"
2	202	"C:\Experiments\Bartholow Lab\Hannah Volpert\stimuli\Black21.jpg"	"beauty"	"1"	"forehead"	"2"	"112"	635	5	"0"	1	"0"
2	203	"C:\Experiments\Bartholow Lab\Hannah Volpert\stimuli\White13.jpg"	"vacation"	"2"	"nose"	"2"	"232"	492	5	"0"	1	"1"
2	204	"C:\Experiments\Bartholow Lab\Hannah Volpert\stimuli\White14.jpg"	"paradise"	"2"	"nose"	"2"	"232"	519	4	"1"	1	"1"
2	205	"C:\Experiments\Bartholow Lab\Hannah Volpert\stimuli\Black3.jpg"	"garbage"	"1"	"forehead"	"1"	"111"	654	4	"0"	1	"1"
2	206	"C:\Experiments\Bartholow Lab\Hannah Volpert\stimuli\White3.jpg"	"success"	"2"	"nose"	"2"	"232"	625	5	"0"	1	"1"
2	207	"C:\Experiments\Bartholow Lab\Hannah Volpert\stimuli\Black4.jpg"	"beauty"	"1"	"forehead"	"2"	"112"	613	5	"0"	1	"0"
2	208	"C:\Experiments\Bartholow Lab\Hannah Volpert\stimuli\Black10.jpg"	"cockroach"	"1"	"forehead"	"1"	"111"	996.307067557158	4	"0"	1	"1"
2	209	"C:\Experiments\Bartholow Lab\Hannah Volpert\stimuli\Black23.jpg"	"vomit"	"1"	"eyes"	"1"	"121"	823	4	"0"	1	"1"
2	210	"C:\Experiments\Bartholow Lab\Hannah Volpert\stimuli\White16.jpg"	"cockroach"	"2"	"eyes"	"1"	"221"	877	4	"0"	1	"0"
2	211	"C:\Experiments\Bartholow Lab\Hannah Volpert\stimuli\Black8.jpg"	"disgust"	"1"	"eyes"	"1"	"121"	782	4	"0"	1	"1"
2	212	"C:\Experiments\Bartholow Lab\Hannah Volpert\stimuli\Black22.jpg"	"disgust"	"1"	"eyes"	"1"	"121"	828	4	"0"	1	"1"
2	213	"C:\Experiments\Bartholow Lab\Hannah Volpert\stimuli\Black9.jpg"	"smile"	"1"	"eyes"	"2"	"122"	581	5	"0"	1	"0"
2	214	"C:\Experiments\Bartholow Lab\Hannah Volpert\stimuli\White4.jpg"	"cockroach"	"2"	"nose"	"1"	"231"	617	4	"0"	1	"0"
2	215	"C:\Experiments\Bartholow Lab\Hannah Volpert\stimuli\White6.jpg"	"paradise"	"2"	"nose"	"2"	"232"	631	5	"0"	1	"1"
2	216	"C:\Experiments\Bartholow Lab\Hannah Volpert\stimuli\Black9.jpg"	"pest"	"1"	"nose"	"1"	"131"	629	4	"0"	1	"1"
2	217	"C:\Experiments\Bartholow Lab\Hannah Volpert\stimuli\Black14.jpg"	"poison"	"1"	"forehead"	"1"	"111"	605	4	"0"	1	"1"
2	218	"C:\Experiments\Bartholow Lab\Hannah Volpert\stimuli\White21.jpg"	"joy"	"2"	"nose"	"2"	"232"	462	5	"0"	1	"1"
2	219	"C:\Experiments\Bartholow Lab\Hannah Volpert\stimuli\White1.jpg"	"vacation"	"2"	"forehead"	"2"	"212"	524	5	"0"	1	"1"
2	220	"C:\Experiments\Bartholow Lab\Hannah Volpert\stimuli\Black6.jpg"	"love"	"1"	"nose"	"2"	"132"	520	5	"0"	1	"0"
2	221	"C:\Experiments\Bartholow Lab\Hannah Volpert\stimuli\White5.jpg"	"joy"	"2"	"eyes"	"2"	"222"	595	5	"0"	1	"1"
2	222	"C:\Experiments\Bartholow Lab\Hannah Volpert\stimuli\White21.jpg"	"vacation"	"2"	"forehead"	"2"	"212"	610	5	"0"	1	"1"
2	223	"C:\Experiments\Bartholow Lab\Hannah Volpert\stimuli\Black24.jpg"	"smile"	"1"	"eyes"	"2"	"122"	464	5	"0"	1	"0"
2	224	"C:\Experiments\Bartholow Lab\Hannah Volpert\stimuli\Black17.jpg"	"cockroach"	"1"	"forehead"	"1"	"111"	635	4	"0"	1	"1"
2	225	"C:\Experiments\Bartholow Lab\Hannah Volpert\stimuli\Black19.jpg"	"success"	"1"	"forehead"	"2"	"112"	604	5	"0"	1	"0"
2	226	"C:\Experiments\Bartholow Lab\Hannah Volpert\stimuli\Black22.jpg"	"garbage"	"1"	"nose"	"1"	"131"	568	4	"0"	1	"1"
2	227	"C:\Experiments\Bartholow Lab\Hannah Volpert\stimuli\White21.jpg"	"beauty"	"2"	"eyes"	"2"	"222"	513	5	"0"	1	"1"
2	228	"C:\Experiments\Bartholow Lab\Hannah Volpert\stimuli\Black4.jpg"	"joy"	"1"	"eyes"	"2"	"122"	476	5	"0"	1	"0"
2	229	"C:\Experiments\Bartholow Lab\Hannah Volpert\stimuli\Black11.jpg"	"paradise"	"1"	"forehead"	"2"	"112"	602	5	"0"	1	"0"
2	230	"C:\Experiments\Bartholow Lab\Hannah Volpert\stimuli\Black23.jpg"	"success"	"1"	"nose"	"2"	"132"	963	5	"0"	1	"0"
2	231	"C:\Experiments\Bartholow Lab\Hannah Volpert\stimuli\Black18.jpg"	"beauty"	"1"	"eyes"	"2"	"122"	532	5	"0"	1	"0"
2	232	"C:\Experiments\Bartholow Lab\Hannah Volpert\stimuli\White19.jpg"	"sewage"	"2"	"nose"	"1"	"231"	611	4	"0"	1	"0"
2	233	"C:\Experiments\Bartholow Lab\Hannah Volpert\stimuli\White14.jpg"	"vomit"	"2"	"forehead"	"1"	"211"	771	4	"0"	1	"0"
2	234	"C:\Experiments\Bartholow Lab\Hannah Volpert\stimuli\Black13.jpg"	"beauty"	"1"	"nose"	"2"	"132"	639	5	"0"	1	"0"
2	235	"C:\Experiments\Bartholow Lab\Hannah Volpert\stimuli\Black5.jpg"	"love"	"1"	"nose"	"2"	"132"	517	5	"0"	1	"0"
2	236	"C:\Experiments\Bartholow Lab\Hannah Volpert\stimuli\White9.jpg"	"cockroach"	"2"	"nose"	"1"	"231"	606	4	"0"	1	"0"
2	237	"C:\Experiments\Bartholow Lab\Hannah Volpert\stimuli\Black23.jpg"	"sewage"	"1"	"nose"	"1"	"131"	602	4	"0"	1	"1"
2	238	"C:\Experiments\Bartholow Lab\Hannah Volpert\stimuli\White19.jpg"	"sewage"	"2"	"eyes"	"1"	"221"	536	4	"0"	1	"0"
2	239	"C:\Experiments\Bartholow Lab\Hannah Volpert\stimuli\Black14.jpg"	"joy"	"1"	"eyes"	"2"	"122"	502	5	"0"	1	"0"
2	240	"C:\Experiments\Bartholow Lab\Hannah Volpert\stimuli\Black10.jpg"	"vomit"	"1"	"eyes"	"1"	"121"	572	4	"0"	1	"1"
2	241	"C:\Experiments\Bartholow Lab\Hannah Volpert\stimuli\White9.jpg"	"sewage"	"2"	"forehead"	"1"	"211"	624	4	"0"	1	"0"
2	242	"C:\Experiments\Bartholow Lab\Hannah Volpert\stimuli\Black13.jpg"	"cockroach"	"1"	"forehead"	"1"	"111"	622	4	"0"	1	"1"
2	243	"C:\Experiments\Bartholow Lab\Hannah Volpert\stimuli\Black6.jpg"	"vomit"	"1"	"nose"	"1"	"131"	527	4	"0"	1	"1"
2	244	"C:\Experiments\Bartholow Lab\Hannah Volpert\stimuli\Black24.jpg"	"pest"	"1"	"nose"	"1"	"131"	557	4	"0"	1	"1"
2	245	"C:\Experiments\Bartholow Lab\Hannah Volpert\stimuli\Black13.jpg"	"romance"	"1"	"forehead"	"2"	"112"	542	5	"0"	1	"0"
2	246	"C:\Experiments\Bartholow Lab\Hannah Volpert\stimuli\Black9.jpg"	"disgust"	"1"	"eyes"	"1"	"121"	623	4	"0"	1	"1"
2	247	"C:\Experiments\Bartholow Lab\Hannah Volpert\stimuli\White2.jpg"	"beauty"	"2"	"nose"	"2"	"232"	621	5	"0"	1	"1"
2	248	"C:\Experiments\Bartholow Lab\Hannah Volpert\stimuli\Black20.jpg"	"cockroach"	"1"	"eyes"	"1"	"121"	622	4	"0"	1	"1"
2	249	"C:\Experiments\Bartholow Lab\Hannah Volpert\stimuli\Black21.jpg"	"garbage"	"1"	"nose"	"1"	"131"	543	4	"0"	1	"1"
2	250	"C:\Experiments\Bartholow Lab\Hannah Volpert\stimuli\White11.jpg"	"despair"	"2"	"nose"	"1"	"231"	509	4	"0"	1	"0"
2	251	"C:\Experiments\Bartholow Lab\Hannah Volpert\stimuli\White18.jpg"	"joy"	"2"	"nose"	"2"	"232"	491	5	"0"	1	"1"
2	252	"C:\Experiments\Bartholow Lab\Hannah Volpert\stimuli\White16.jpg"	"smile"	"2"	"nose"	"2"	"232"	543	5	"0"	1	"1"
2	253	"C:\Experiments\Bartholow Lab\Hannah Volpert\stimuli\White17.jpg"	"poison"	"2"	"forehead"	"1"	"211"	717	4	"0"	1	"0"
2	254	"C:\Experiments\Bartholow Lab\Hannah Volpert\stimuli\White3.jpg"	"joy"	"2"	"forehead"	"2"	"212"	593	5	"0"	1	"1"
2	255	"C:\Experiments\Bartholow Lab\Hannah Volpert\stimuli\Black18.jpg"	"garbage"	"1"	"eyes"	"1"	"121"	569	4	"0"	1	"1"
2	256	"C:\Experiments\Bartholow Lab\Hannah Volpert\stimuli\Black8.jpg"	"pest"	"1"	"nose"	"1"	"131"	576	4	"0"	1	"1"
2	257	"C:\Experiments\Bartholow Lab\Hannah Volpert\stimuli\White2.jpg"	"cockroach"	"2"	"forehead"	"1"	"211"	614	4	"0"	1	"0"
2	258	"C:\Experiments\Bartholow Lab\Hannah Volpert\stimuli\Black1.jpg"	"sewage"	"1"	"nose"	"1"	"131"	535	4	"0"	1	"1"
2	259	"C:\Experiments\Bartholow Lab\Hannah Volpert\stimuli\Black20.jpg"	"disgust"	"1"	"forehead"	"1"	"111"	648	4	"0"	1	"1"
2	260	"C:\Experiments\Bartholow Lab\Hannah Volpert\stimuli\Black11.jpg"	"sewage"	"1"	"eyes"	"1"	"121"	550	4	"0"	1	"1"
2	261	"C:\Experiments\Bartholow Lab\Hannah Volpert\stimuli\White3.jpg"	"despair"	"2"	"nose"	"1"	"231"	519	4	"0"	1	"0"
2	262	"C:\Experiments\Bartholow Lab\Hannah Volpert\stimuli\Black19.jpg"	"despair"	"1"	"nose"	"1"	"131"	563	4	"0"	1	"1"
2	263	"C:\Experiments\Bartholow Lab\Hannah Volpert\stimuli\Black10.jpg"	"joy"	"1"	"forehead"	"2"	"112"	614	5	"0"	1	"0"
2	264	"C:\Experiments\Bartholow Lab\Hannah Volpert\stimuli\White8.jpg"	"despair"	"2"	"forehead"	"1"	"211"	612	4	"0"	1	"0"
2	265	"C:\Experiments\Bartholow Lab\Hannah Volpert\stimuli\Black5.jpg"	"despair"	"1"	"eyes"	"1"	"121"	595	4	"0"	1	"1"
2	266	"C:\Experiments\Bartholow Lab\Hannah Volpert\stimuli\Black18.jpg"	"romance"	"1"	"nose"	"2"	"132"	683	5	"0"	1	"0"
2	267	"C:\Experiments\Bartholow Lab\Hannah Volpert\stimuli\Black17.jpg"	"love"	"1"	"eyes"	"2"	"122"	596	5	"0"	1	"0"
2	268	"C:\Experiments\Bartholow Lab\Hannah Volpert\stimuli\White12.jpg"	"success"	"2"	"nose"	"2"	"232"	704	5	"0"	1	"1"
2	269	"C:\Experiments\Bartholow Lab\Hannah Volpert\stimuli\Black14.jpg"	"garbage"	"1"	"nose"	"1"	"131"	734	4	"0"	1	"1"
2	270	"C:\Experiments\Bartholow Lab\Hannah Volpert\stimuli\Black21.jpg"	"success"	"1"	"nose"	"2"	"132"	682	5	"0"	1	"0"
2	271	"C:\Experiments\Bartholow Lab\Hannah Volpert\stimuli\White24.jpg"	"smile"	"2"	"nose"	"2"	"232"	693	5	"0"	1	"1"
2	272	"C:\Experiments\Bartholow Lab\Hannah Volpert\stimuli\White13.jpg"	"poison"	"2"	"eyes"	"1"	"221"	753	4	"0"	1	"0"
2	273	"C:\Experiments\Bartholow Lab\Hannah Volpert\stimuli\Black12.jpg"	"love"	"1"	"nose"	"2"	"132"	714	5	"0"	1	"0"
2	274	"C:\Experiments\Bartholow Lab\Hannah Volpert\stimuli\White11.jpg"	"love"	"2"	"forehead"	"2"	"212"	651	5	"0"	1	"1"
2	275	"C:\Experiments\Bartholow Lab\Hannah Volpert\stimuli\White1.jpg"	"poison"	"2"	"eyes"	"1"	"221"	590	4	"0"	1	"0"
2	276	"C:\Experiments\Bartholow Lab\Hannah Volpert\stimuli\White8.jpg"	"pest"	"2"	"eyes"	"1"	"221"	679	4	"0"	1	"0"
2	277	"C:\Experiments\Bartholow Lab\Hannah Volpert\stimuli\White10.jpg"	"smile"	"2"	"eyes"	"2"	"222"	627	5	"0"	1	"1"
2	278	"C:\Experiments\Bartholow Lab\Hannah Volpert\stimuli\White8.jpg"	"garbage"	"2"	"nose"	"1"	"231"	564	4	"0"	1	"0"
2	279	"C:\Experiments\Bartholow Lab\Hannah Volpert\stimuli\White12.jpg"	"pest"	"2"	"eyes"	"1"	"221"	551	4	"0"	1	"0"
2	280	"C:\Experiments\Bartholow Lab\Hannah Volpert\stimuli\White13.jpg"	"garbage"	"2"	"nose"	"1"	"231"	632	4	"0"	1	"0"
2	281	"C:\Experiments\Bartholow Lab\Hannah Volpert\stimuli\White9.jpg"	"vacation"	"2"	"nose"	"2"	"232"	566	5	"0"	1	"1"
2	282	"C:\Experiments\Bartholow Lab\Hannah Volpert\stimuli\White22.jpg"	"smile"	"2"	"forehead"	"2"	"212"	583	5	"0"	1	"1"
2	283	"C:\Experiments\Bartholow Lab\Hannah Volpert\stimuli\Black18.jpg"	"joy"	"1"	"forehead"	"2"	"112"	621	5	"0"	1	"0"
2	284	"C:\Experiments\Bartholow Lab\Hannah Volpert\stimuli\Black11.jpg"	"despair"	"1"	"forehead"	"1"	"111"	598	4	"0"	1	"1"
2	285	"C:\Experiments\Bartholow Lab\Hannah Volpert\stimuli\Black22.jpg"	"love"	"1"	"nose"	"2"	"132"	786	5	"0"	1	"0"
2	286	"C:\Experiments\Bartholow Lab\Hannah Volpert\stimuli\Black3.jpg"	"cockroach"	"1"	"eyes"	"1"	"121"	621	4	"0"	1	"1"
2	287	"C:\Experiments\Bartholow Lab\Hannah Volpert\stimuli\Black22.jpg"	"joy"	"1"	"forehead"	"2"	"112"	732	5	"0"	1	"0"
2	288	"C:\Experiments\Bartholow Lab\Hannah Volpert\stimuli\White9.jpg"	"despair"	"2"	"eyes"	"1"	"221"	978	4	"0"	1	"0"
2	1	"C:\Experiments\Bartholow Lab\Hannah Volpert\stimuli\White9.jpg"	"romance"	"2"	"forehead"	"2"	"212"	809.782456790829	5	"0"	2	"1"
2	2	"C:\Experiments\Bartholow Lab\Hannah Volpert\stimuli\White18.jpg"	"success"	"2"	"nose"	"2"	"232"	559	5	"0"	2	"1"
2	3	"C:\Experiments\Bartholow Lab\Hannah Volpert\stimuli\White19.jpg"	"romance"	"2"	"nose"	"2"	"232"	576	5	"0"	2	"1"
2	4	"C:\Experiments\Bartholow Lab\Hannah Volpert\stimuli\Black10.jpg"	"cockroach"	"1"	"eyes"	"1"	"121"	582	4	"0"	2	"1"
2	5	"C:\Experiments\Bartholow Lab\Hannah Volpert\stimuli\Black24.jpg"	"success"	"1"	"eyes"	"2"	"122"	511	5	"0"	2	"0"
2	6	"C:\Experiments\Bartholow Lab\Hannah Volpert\stimuli\White5.jpg"	"beauty"	"2"	"eyes"	"2"	"222"	552	5	"0"	2	"1"
2	7	"C:\Experiments\Bartholow Lab\Hannah Volpert\stimuli\White23.jpg"	"romance"	"2"	"forehead"	"2"	"212"	500	5	"0"	2	"1"
2	8	"C:\Experiments\Bartholow Lab\Hannah Volpert\stimuli\Black22.jpg"	"romance"	"1"	"nose"	"2"	"132"	507	5	"0"	2	"0"
2	9	"C:\Experiments\Bartholow Lab\Hannah Volpert\stimuli\White22.jpg"	"garbage"	"2"	"eyes"	"1"	"221"	499	4	"0"	2	"0"
2	10	"C:\Experiments\Bartholow Lab\Hannah Volpert\stimuli\Black8.jpg"	"disgust"	"1"	"eyes"	"1"	"121"	602	4	"0"	2	"1"
2	11	"C:\Experiments\Bartholow Lab\Hannah Volpert\stimuli\White1.jpg"	"cockroach"	"2"	"forehead"	"1"	"211"	533	4	"0"	2	"0"
2	12	"C:\Experiments\Bartholow Lab\Hannah Volpert\stimuli\White2.jpg"	"despair"	"2"	"nose"	"1"	"231"	622	4	"0"	2	"0"
2	13	"C:\Experiments\Bartholow Lab\Hannah Volpert\stimuli\White20.jpg"	"beauty"	"2"	"nose"	"2"	"232"	501	5	"0"	2	"1"
2	14	"C:\Experiments\Bartholow Lab\Hannah Volpert\stimuli\White11.jpg"	"vomit"	"2"	"forehead"	"1"	"211"	588	4	"0"	2	"0"
2	15	"C:\Experiments\Bartholow Lab\Hannah Volpert\stimuli\Black20.jpg"	"smile"	"1"	"forehead"	"2"	"112"	809.782456790829	5	"0"	2	"0"
2	16	"C:\Experiments\Bartholow Lab\Hannah Volpert\stimuli\Black5.jpg"	"disgust"	"1"	"nose"	"1"	"131"	614	4	"0"	2	"1"
2	17	"C:\Experiments\Bartholow Lab\Hannah Volpert\stimuli\White13.jpg"	"vomit"	"2"	"eyes"	"1"	"221"	532	4	"0"	2	"0"
2	18	"C:\Experiments\Bartholow Lab\Hannah Volpert\stimuli\White3.jpg"	"vomit"	"2"	"forehead"	"1"	"211"	527	4	"0"	2	"0"
2	19	"C:\Experiments\Bartholow Lab\Hannah Volpert\stimuli\White1.jpg"	"success"	"2"	"nose"	"2"	"232"	507	5	"0"	2	"1"
2	20	"C:\Experiments\Bartholow Lab\Hannah Volpert\stimuli\Black8.jpg"	"garbage"	"1"	"nose"	"1"	"131"	598	4	"0"	2	"1"
2	21	"C:\Experiments\Bartholow Lab\Hannah Volpert\stimuli\Black8.jpg"	"paradise"	"1"	"eyes"	"2"	"122"	565	4	"1"	2	"0"
2	22	"C:\Experiments\Bartholow Lab\Hannah Volpert\stimuli\Black9.jpg"	"despair"	"1"	"nose"	"1"	"131"	552	4	"0"	2	"1"
2	23	"C:\Experiments\Bartholow Lab\Hannah Volpert\stimuli\Black3.jpg"	"romance"	"1"	"eyes"	"2"	"122"	500	5	"0"	2	"0"
2	24	"C:\Experiments\Bartholow Lab\Hannah Volpert\stimuli\Black1.jpg"	"love"	"1"	"eyes"	"2"	"122"	517	5	"0"	2	"0"
2	25	"C:\Experiments\Bartholow Lab\Hannah Volpert\stimuli\Black18.jpg"	"smile"	"1"	"forehead"	"2"	"112"	638	5	"0"	2	"0"
2	26	"C:\Experiments\Bartholow Lab\Hannah Volpert\stimuli\White16.jpg"	"garbage"	"2"	"nose"	"1"	"231"	526	4	"0"	2	"0"
2	27	"C:\Experiments\Bartholow Lab\Hannah Volpert\stimuli\White21.jpg"	"poison"	"2"	"eyes"	"1"	"221"	621	4	"0"	2	"0"
2	28	"C:\Experiments\Bartholow Lab\Hannah Volpert\stimuli\White16.jpg"	"paradise"	"2"	"nose"	"2"	"232"	699	5	"0"	2	"1"
2	29	"C:\Experiments\Bartholow Lab\Hannah Volpert\stimuli\White17.jpg"	"pest"	"2"	"forehead"	"1"	"211"	665	4	"0"	2	"0"
2	30	"C:\Experiments\Bartholow Lab\Hannah Volpert\stimuli\Black2.jpg"	"poison"	"1"	"nose"	"1"	"131"	661	4	"0"	2	"1"
2	31	"C:\Experiments\Bartholow Lab\Hannah Volpert\stimuli\Black4.jpg"	"pest"	"1"	"forehead"	"1"	"111"	622	4	"0"	2	"1"
2	32	"C:\Experiments\Bartholow Lab\Hannah Volpert\stimuli\Black4.jpg"	"joy"	"1"	"nose"	"2"	"132"	526	5	"0"	2	"0"
2	33	"C:\Experiments\Bartholow Lab\Hannah Volpert\stimuli\White7.jpg"	"joy"	"2"	"eyes"	"2"	"222"	746	5	"0"	2	"1"
2	34	"C:\Experiments\Bartholow Lab\Hannah Volpert\stimuli\Black15.jpg"	"poison"	"1"	"forehead"	"1"	"111"	695	4	"0"	2	"1"
2	35	"C:\Experiments\Bartholow Lab\Hannah Volpert\stimuli\Black21.jpg"	"sewage"	"1"	"forehead"	"1"	"111"	634	4	"0"	2	"1"
2	36	"C:\Experiments\Bartholow Lab\Hannah Volpert\stimuli\White9.jpg"	"joy"	"2"	"eyes"	"2"	"222"	747	5	"0"	2	"1"
2	37	"C:\Experiments\Bartholow Lab\Hannah Volpert\stimuli\White20.jpg"	"success"	"2"	"forehead"	"2"	"212"	460	5	"0"	2	"1"
2	38	"C:\Experiments\Bartholow Lab\Hannah Volpert\stimuli\White3.jpg"	"smile"	"2"	"forehead"	"2"	"212"	536	5	"0"	2	"1"
2	39	"C:\Experiments\Bartholow Lab\Hannah Volpert\stimuli\White13.jpg"	"paradise"	"2"	"eyes"	"2"	"222"	694	5	"0"	2	"1"
2	40	"C:\Experiments\Bartholow Lab\Hannah Volpert\stimuli\White3.jpg"	"vomit"	"2"	"nose"	"1"	"231"	564	4	"0"	2	"0"
2	41	"C:\Experiments\Bartholow Lab\Hannah Volpert\stimuli\White7.jpg"	"sewage"	"2"	"nose"	"1"	"231"	568	4	"0"	2	"0"
2	42	"C:\Experiments\Bartholow Lab\Hannah Volpert\stimuli\Black6.jpg"	"vacation"	"1"	"eyes"	"2"	"122"	763	5	"0"	2	"0"
2	43	"C:\Experiments\Bartholow Lab\Hannah Volpert\stimuli\White22.jpg"	"beauty"	"2"	"eyes"	"2"	"222"	583	5	"0"	2	"1"
2	44	"C:\Experiments\Bartholow Lab\Hannah Volpert\stimuli\White16.jpg"	"sewage"	"2"	"eyes"	"1"	"221"	544	4	"0"	2	"0"
2	45	"C:\Experiments\Bartholow Lab\Hannah Volpert\stimuli\Black17.jpg"	"love"	"1"	"nose"	"2"	"132"	494	5	"0"	2	"0"
2	46	"C:\Experiments\Bartholow Lab\Hannah Volpert\stimuli\Black13.jpg"	"vacation"	"1"	"eyes"	"2"	"122"	516	5	"0"	2	"0"
2	47	"C:\Experiments\Bartholow Lab\Hannah Volpert\stimuli\White20.jpg"	"despair"	"2"	"forehead"	"1"	"211"	533	4	"0"	2	"0"
2	48	"C:\Experiments\Bartholow Lab\Hannah Volpert\stimuli\Black23.jpg"	"smile"	"1"	"eyes"	"2"	"122"	467	5	"0"	2	"0"
2	49	"C:\Experiments\Bartholow Lab\Hannah Volpert\stimuli\White17.jpg"	"love"	"2"	"forehead"	"2"	"212"	436	5	"0"	2	"1"
2	50	"C:\Experiments\Bartholow Lab\Hannah Volpert\stimuli\White22.jpg"	"joy"	"2"	"forehead"	"2"	"212"	461	5	"0"	2	"1"
2	51	"C:\Experiments\Bartholow Lab\Hannah Volpert\stimuli\Black1.jpg"	"garbage"	"1"	"forehead"	"1"	"111"	486	4	"0"	2	"1"
2	52	"C:\Experiments\Bartholow Lab\Hannah Volpert\stimuli\White1.jpg"	"love"	"2"	"forehead"	"2"	"212"	521	5	"0"	2	"1"
2	53	"C:\Experiments\Bartholow Lab\Hannah Volpert\stimuli\White12.jpg"	"garbage"	"2"	"nose"	"1"	"231"	485	4	"0"	2	"0"
2	54	"C:\Experiments\Bartholow Lab\Hannah Volpert\stimuli\Black7.jpg"	"romance"	"1"	"forehead"	"2"	"112"	557	5	"0"	2	"0"
2	55	"C:\Experiments\Bartholow Lab\Hannah Volpert\stimuli\Black21.jpg"	"vacation"	"1"	"eyes"	"2"	"122"	546	5	"0"	2	"0"
2	56	"C:\Experiments\Bartholow Lab\Hannah Volpert\stimuli\Black8.jpg"	"despair"	"1"	"forehead"	"1"	"111"	499	4	"0"	2	"1"
2	57	"C:\Experiments\Bartholow Lab\Hannah Volpert\stimuli\White15.jpg"	"pest"	"2"	"nose"	"1"	"231"	562	4	"0"	2	"0"
2	58	"C:\Experiments\Bartholow Lab\Hannah Volpert\stimuli\Black4.jpg"	"sewage"	"1"	"eyes"	"1"	"121"	547	4	"0"	2	"1"
2	59	"C:\Experiments\Bartholow Lab\Hannah Volpert\stimuli\White4.jpg"	"success"	"2"	"forehead"	"2"	"212"	564	5	"0"	2	"1"
2	60	"C:\Experiments\Bartholow Lab\Hannah Volpert\stimuli\White5.jpg"	"paradise"	"2"	"forehead"	"2"	"212"	613	5	"0"	2	"1"
2	61	"C:\Experiments\Bartholow Lab\Hannah Volpert\stimuli\Black13.jpg"	"joy"	"1"	"forehead"	"2"	"112"	420	5	"0"	2	"0"
2	62	"C:\Experiments\Bartholow Lab\Hannah Volpert\stimuli\Black17.jpg"	"pest"	"1"	"nose"	"1"	"131"	600	4	"0"	2	"1"
2	63	"C:\Experiments\Bartholow Lab\Hannah Volpert\stimuli\White5.jpg"	"poison"	"2"	"forehead"	"1"	"211"	563	4	"0"	2	"0"
2	64	"C:\Experiments\Bartholow Lab\Hannah Volpert\stimuli\White23.jpg"	"joy"	"2"	"nose"	"2"	"232"	698	5	"0"	2	"1"
2	65	"C:\Experiments\Bartholow Lab\Hannah Volpert\stimuli\Black14.jpg"	"disgust"	"1"	"forehead"	"1"	"111"	505	4	"0"	2	"1"
2	66	"C:\Experiments\Bartholow Lab\Hannah Volpert\stimuli\Black17.jpg"	"despair"	"1"	"forehead"	"1"	"111"	476	4	"0"	2	"1"
2	67	"C:\Experiments\Bartholow Lab\Hannah Volpert\stimuli\White13.jpg"	"joy"	"2"	"forehead"	"2"	"212"	413	5	"0"	2	"1"
2	68	"C:\Experiments\Bartholow Lab\Hannah Volpert\stimuli\White15.jpg"	"despair"	"2"	"forehead"	"1"	"211"	521	4	"0"	2	"0"
2	69	"C:\Experiments\Bartholow Lab\Hannah Volpert\stimuli\White14.jpg"	"vomit"	"2"	"nose"	"1"	"231"	650	4	"0"	2	"0"
2	70	"C:\Experiments\Bartholow Lab\Hannah Volpert\stimuli\Black7.jpg"	"cockroach"	"1"	"eyes"	"1"	"121"	635	4	"0"	2	"1"
2	71	"C:\Experiments\Bartholow Lab\Hannah Volpert\stimuli\Black2.jpg"	"smile"	"1"	"eyes"	"2"	"122"	425	5	"0"	2	"0"
2	72	"C:\Experiments\Bartholow Lab\Hannah Volpert\stimuli\Black6.jpg"	"cockroach"	"1"	"forehead"	"1"	"111"	608	4	"0"	2	"1"
2	73	"C:\Experiments\Bartholow Lab\Hannah Volpert\stimuli\White4.jpg"	"romance"	"2"	"eyes"	"2"	"222"	536	5	"0"	2	"1"
2	74	"C:\Experiments\Bartholow Lab\Hannah Volpert\stimuli\White8.jpg"	"romance"	"2"	"eyes"	"2"	"222"	406	5	"0"	2	"1"
2	75	"C:\Experiments\Bartholow Lab\Hannah Volpert\stimuli\White22.jpg"	"vacation"	"2"	"nose"	"2"	"232"	713	5	"0"	2	"1"
2	76	"C:\Experiments\Bartholow Lab\Hannah Volpert\stimuli\Black4.jpg"	"success"	"1"	"forehead"	"2"	"112"	605	5	"0"	2	"0"
2	77	"C:\Experiments\Bartholow Lab\Hannah Volpert\stimuli\White24.jpg"	"despair"	"2"	"nose"	"1"	"231"	555	4	"0"	2	"0"
2	78	"C:\Experiments\Bartholow Lab\Hannah Volpert\stimuli\White11.jpg"	"smile"	"2"	"eyes"	"2"	"222"	556	5	"0"	2	"1"
2	79	"C:\Experiments\Bartholow Lab\Hannah Volpert\stimuli\White11.jpg"	"pest"	"2"	"eyes"	"1"	"221"	637	4	"0"	2	"0"
2	80	"C:\Experiments\Bartholow Lab\Hannah Volpert\stimuli\White6.jpg"	"smile"	"2"	"eyes"	"2"	"222"	526	5	"0"	2	"1"
2	81	"C:\Experiments\Bartholow Lab\Hannah Volpert\stimuli\White24.jpg"	"vomit"	"2"	"eyes"	"1"	"221"	615	4	"0"	2	"0"
2	82	"C:\Experiments\Bartholow Lab\Hannah Volpert\stimuli\White20.jpg"	"vacation"	"2"	"eyes"	"2"	"222"	477	5	"0"	2	"1"
2	83	"C:\Experiments\Bartholow Lab\Hannah Volpert\stimuli\White24.jpg"	"love"	"2"	"nose"	"2"	"232"	558	5	"0"	2	"1"
2	84	"C:\Experiments\Bartholow Lab\Hannah Volpert\stimuli\Black17.jpg"	"joy"	"1"	"eyes"	"2"	"122"	556	5	"0"	2	"0"
2	85	"C:\Experiments\Bartholow Lab\Hannah Volpert\stimuli\White21.jpg"	"vomit"	"2"	"forehead"	"1"	"211"	592	4	"0"	2	"0"
2	86	"C:\Experiments\Bartholow Lab\Hannah Volpert\stimuli\Black15.jpg"	"sewage"	"1"	"nose"	"1"	"131"	664	4	"0"	2	"1"
2	87	"C:\Experiments\Bartholow Lab\Hannah Volpert\stimuli\White12.jpg"	"cockroach"	"2"	"eyes"	"1"	"221"	639	4	"0"	2	"0"
2	88	"C:\Experiments\Bartholow Lab\Hannah Volpert\stimuli\White19.jpg"	"garbage"	"2"	"eyes"	"1"	"221"	536	4	"0"	2	"0"
2	89	"C:\Experiments\Bartholow Lab\Hannah Volpert\stimuli\Black6.jpg"	"joy"	"1"	"nose"	"2"	"132"	424	5	"0"	2	"0"
2	90	"C:\Experiments\Bartholow Lab\Hannah Volpert\stimuli\White10.jpg"	"garbage"	"2"	"eyes"	"1"	"221"	559	4	"0"	2	"0"
2	91	"C:\Experiments\Bartholow Lab\Hannah Volpert\stimuli\Black4.jpg"	"vacation"	"1"	"eyes"	"2"	"122"	501	5	"0"	2	"0"
2	92	"C:\Experiments\Bartholow Lab\Hannah Volpert\stimuli\White21.jpg"	"love"	"2"	"nose"	"2"	"232"	478	5	"0"	2	"1"
2	93	"C:\Experiments\Bartholow Lab\Hannah Volpert\stimuli\White23.jpg"	"sewage"	"2"	"eyes"	"1"	"221"	489	4	"0"	2	"0"
2	94	"C:\Experiments\Bartholow Lab\Hannah Volpert\stimuli\Black19.jpg"	"vacation"	"1"	"forehead"	"2"	"112"	685	5	"0"	2	"0"
2	95	"C:\Experiments\Bartholow Lab\Hannah Volpert\stimuli\White15.jpg"	"beauty"	"2"	"eyes"	"2"	"222"	502	5	"0"	2	"1"
2	96	"C:\Experiments\Bartholow Lab\Hannah Volpert\stimuli\White20.jpg"	"cockroach"	"2"	"nose"	"1"	"231"	596	4	"0"	2	"0"
2	97	"C:\Experiments\Bartholow Lab\Hannah Volpert\stimuli\White18.jpg"	"cockroach"	"2"	"forehead"	"1"	"211"	544	4	"0"	2	"0"
2	98	"C:\Experiments\Bartholow Lab\Hannah Volpert\stimuli\Black1.jpg"	"vacation"	"1"	"forehead"	"2"	"112"	489	5	"0"	2	"0"
2	99	"C:\Experiments\Bartholow Lab\Hannah Volpert\stimuli\Black15.jpg"	"love"	"1"	"eyes"	"2"	"122"	476	5	"0"	2	"0"
2	100	"C:\Experiments\Bartholow Lab\Hannah Volpert\stimuli\Black20.jpg"	"paradise"	"1"	"eyes"	"2"	"122"	480	5	"0"	2	"0"
2	101	"C:\Experiments\Bartholow Lab\Hannah Volpert\stimuli\White2.jpg"	"disgust"	"2"	"eyes"	"1"	"221"	499	4	"0"	2	"0"
2	102	"C:\Experiments\Bartholow Lab\Hannah Volpert\stimuli\White5.jpg"	"pest"	"2"	"nose"	"1"	"231"	504	4	"0"	2	"0"
2	103	"C:\Experiments\Bartholow Lab\Hannah Volpert\stimuli\White17.jpg"	"smile"	"2"	"nose"	"2"	"232"	462	5	"0"	2	"1"
2	104	"C:\Experiments\Bartholow Lab\Hannah Volpert\stimuli\White1.jpg"	"beauty"	"2"	"eyes"	"2"	"222"	460	5	"0"	2	"1"
2	105	"C:\Experiments\Bartholow Lab\Hannah Volpert\stimuli\Black23.jpg"	"disgust"	"1"	"nose"	"1"	"131"	459	4	"0"	2	"1"
2	106	"C:\Experiments\Bartholow Lab\Hannah Volpert\stimuli\White9.jpg"	"love"	"2"	"nose"	"2"	"232"	521	5	"0"	2	"1"
2	107	"C:\Experiments\Bartholow Lab\Hannah Volpert\stimuli\Black5.jpg"	"vomit"	"1"	"eyes"	"1"	"121"	530	4	"0"	2	"1"
2	108	"C:\Experiments\Bartholow Lab\Hannah Volpert\stimuli\Black12.jpg"	"love"	"1"	"forehead"	"2"	"112"	454	5	"0"	2	"0"
2	109	"C:\Experiments\Bartholow Lab\Hannah Volpert\stimuli\White15.jpg"	"cockroach"	"2"	"eyes"	"1"	"221"	545	4	"0"	2	"0"
2	110	"C:\Experiments\Bartholow Lab\Hannah Volpert\stimuli\White10.jpg"	"vacation"	"2"	"eyes"	"2"	"222"	587	5	"0"	2	"1"
2	111	"C:\Experiments\Bartholow Lab\Hannah Volpert\stimuli\Black7.jpg"	"pest"	"1"	"forehead"	"1"	"111"	501	4	"0"	2	"1"
2	112	"C:\Experiments\Bartholow Lab\Hannah Volpert\stimuli\White10.jpg"	"despair"	"2"	"forehead"	"1"	"211"	584	4	"0"	2	"0"
2	113	"C:\Experiments\Bartholow Lab\Hannah Volpert\stimuli\White19.jpg"	"garbage"	"2"	"nose"	"1"	"231"	561	4	"0"	2	"0"
2	114	"C:\Experiments\Bartholow Lab\Hannah Volpert\stimuli\White19.jpg"	"vacation"	"2"	"eyes"	"2"	"222"	567	5	"0"	2	"1"
2	115	"C:\Experiments\Bartholow Lab\Hannah Volpert\stimuli\White20.jpg"	"disgust"	"2"	"eyes"	"1"	"221"	451	4	"0"	2	"0"
2	116	"C:\Experiments\Bartholow Lab\Hannah Volpert\stimuli\White6.jpg"	"joy"	"2"	"forehead"	"2"	"212"	479	5	"0"	2	"1"
2	117	"C:\Experiments\Bartholow Lab\Hannah Volpert\stimuli\White12.jpg"	"romance"	"2"	"eyes"	"2"	"222"	459	5	"0"	2	"1"
2	118	"C:\Experiments\Bartholow Lab\Hannah Volpert\stimuli\White24.jpg"	"paradise"	"2"	"forehead"	"2"	"212"	695	5	"0"	2	"1"
2	119	"C:\Experiments\Bartholow Lab\Hannah Volpert\stimuli\Black17.jpg"	"garbage"	"1"	"eyes"	"1"	"121"	593	4	"0"	2	"1"
2	120	"C:\Experiments\Bartholow Lab\Hannah Volpert\stimuli\Black24.jpg"	"joy"	"1"	"nose"	"2"	"132"	492	5	"0"	2	"0"
2	121	"C:\Experiments\Bartholow Lab\Hannah Volpert\stimuli\White13.jpg"	"pest"	"2"	"forehead"	"1"	"211"	556	4	"0"	2	"0"
2	122	"C:\Experiments\Bartholow Lab\Hannah Volpert\stimuli\Black3.jpg"	"success"	"1"	"forehead"	"2"	"112"	524	5	"0"	2	"0"
2	123	"C:\Experiments\Bartholow Lab\Hannah Volpert\stimuli\Black2.jpg"	"paradise"	"1"	"nose"	"2"	"132"	743	5	"0"	2	"0"
2	124	"C:\Experiments\Bartholow Lab\Hannah Volpert\stimuli\White18.jpg"	"despair"	"2"	"eyes"	"1"	"221"	595	4	"0"	2	"0"
2	125	"C:\Experiments\Bartholow Lab\Hannah Volpert\stimuli\White4.jpg"	"despair"	"2"	"forehead"	"1"	"211"	516	4	"0"	2	"0"
2	126	"C:\Experiments\Bartholow Lab\Hannah Volpert\stimuli\White17.jpg"	"paradise"	"2"	"eyes"	"2"	"222"	480	4	"1"	2	"1"
2	127	"C:\Experiments\Bartholow Lab\Hannah Volpert\stimuli\Black14.jpg"	"beauty"	"1"	"forehead"	"2"	"112"	412	5	"0"	2	"0"
2	128	"C:\Experiments\Bartholow Lab\Hannah Volpert\stimuli\Black5.jpg"	"romance"	"1"	"eyes"	"2"	"122"	514	5	"0"	2	"0"
2	129	"C:\Experiments\Bartholow Lab\Hannah Volpert\stimuli\Black21.jpg"	"despair"	"1"	"nose"	"1"	"131"	512	4	"0"	2	"1"
2	130	"C:\Experiments\Bartholow Lab\Hannah Volpert\stimuli\Black24.jpg"	"pest"	"1"	"nose"	"1"	"131"	606	4	"0"	2	"1"
2	131	"C:\Experiments\Bartholow Lab\Hannah Volpert\stimuli\Black7.jpg"	"success"	"1"	"eyes"	"2"	"122"	474	5	"0"	2	"0"
2	132	"C:\Experiments\Bartholow Lab\Hannah Volpert\stimuli\White22.jpg"	"pest"	"2"	"nose"	"1"	"231"	568	4	"0"	2	"0"
2	133	"C:\Experiments\Bartholow Lab\Hannah Volpert\stimuli\Black16.jpg"	"vacation"	"1"	"eyes"	"2"	"122"	617	5	"0"	2	"0"
2	134	"C:\Experiments\Bartholow Lab\Hannah Volpert\stimuli\Black21.jpg"	"joy"	"1"	"nose"	"2"	"132"	573	5	"0"	2	"0"
2	135	"C:\Experiments\Bartholow Lab\Hannah Volpert\stimuli\White2.jpg"	"joy"	"2"	"eyes"	"2"	"222"	478	5	"0"	2	"1"
2	136	"C:\Experiments\Bartholow Lab\Hannah Volpert\stimuli\White5.jpg"	"vacation"	"2"	"nose"	"2"	"232"	588	5	"0"	2	"1"
2	137	"C:\Experiments\Bartholow Lab\Hannah Volpert\stimuli\White3.jpg"	"garbage"	"2"	"eyes"	"1"	"221"	469	4	"0"	2	"0"
2	138	"C:\Experiments\Bartholow Lab\Hannah Volpert\stimuli\White7.jpg"	"success"	"2"	"nose"	"2"	"232"	502	5	"0"	2	"1"
2	139	"C:\Experiments\Bartholow Lab\Hannah Volpert\stimuli\Black19.jpg"	"paradise"	"1"	"eyes"	"2"	"122"	809.782456790829	5	"0"	2	"0"
2	140	"C:\Experiments\Bartholow Lab\Hannah Volpert\stimuli\Black2.jpg"	"pest"	"1"	"eyes"	"1"	"121"	517	4	"0"	2	"1"
2	141	"C:\Experiments\Bartholow Lab\Hannah Volpert\stimuli\White12.jpg"	"vacation"	"2"	"forehead"	"2"	"212"	686	5	"0"	2	"1"
2	142	"C:\Experiments\Bartholow Lab\Hannah Volpert\stimuli\Black22.jpg"	"pest"	"1"	"forehead"	"1"	"111"	489	4	"0"	2	"1"
2	143	"C:\Experiments\Bartholow Lab\Hannah Volpert\stimuli\White18.jpg"	"joy"	"2"	"eyes"	"2"	"222"	549	5	"0"	2	"1"
2	144	"C:\Experiments\Bartholow Lab\Hannah Volpert\stimuli\White8.jpg"	"pest"	"2"	"eyes"	"1"	"221"	534	4	"0"	2	"0"
2	145	"C:\Experiments\Bartholow Lab\Hannah Volpert\stimuli\Black22.jpg"	"romance"	"1"	"forehead"	"2"	"112"	486	5	"0"	2	"0"
2	146	"C:\Experiments\Bartholow Lab\Hannah Volpert\stimuli\White8.jpg"	"love"	"2"	"forehead"	"2"	"212"	553	5	"0"	2	"1"
2	147	"C:\Experiments\Bartholow Lab\Hannah Volpert\stimuli\White14.jpg"	"joy"	"2"	"nose"	"2"	"232"	544	5	"0"	2	"1"
2	148	"C:\Experiments\Bartholow Lab\Hannah Volpert\stimuli\Black24.jpg"	"love"	"1"	"forehead"	"2"	"112"	507	5	"0"	2	"0"
2	149	"C:\Experiments\Bartholow Lab\Hannah Volpert\stimuli\White1.jpg"	"sewage"	"2"	"nose"	"1"	"231"	660	4	"0"	2	"0"
2	150	"C:\Experiments\Bartholow Lab\Hannah Volpert\stimuli\Black6.jpg"	"vomit"	"1"	"eyes"	"1"	"121"	635	4	"0"	2	"1"
2	151	"C:\Experiments\Bartholow Lab\Hannah Volpert\stimuli\White7.jpg"	"disgust"	"2"	"forehead"	"1"	"211"	545	4	"0"	2	"0"
2	152	"C:\Experiments\Bartholow Lab\Hannah Volpert\stimuli\White6.jpg"	"paradise"	"2"	"nose"	"2"	"232"	658	5	"0"	2	"1"
2	153	"C:\Experiments\Bartholow Lab\Hannah Volpert\stimuli\Black11.jpg"	"paradise"	"1"	"forehead"	"2"	"112"	550	5	"0"	2	"0"
2	154	"C:\Experiments\Bartholow Lab\Hannah Volpert\stimuli\Black18.jpg"	"cockroach"	"1"	"forehead"	"1"	"111"	487	4	"0"	2	"1"
2	155	"C:\Experiments\Bartholow Lab\Hannah Volpert\stimuli\White9.jpg"	"cockroach"	"2"	"forehead"	"1"	"211"	538	4	"0"	2	"0"
2	156	"C:\Experiments\Bartholow Lab\Hannah Volpert\stimuli\Black24.jpg"	"cockroach"	"1"	"forehead"	"1"	"111"	523	4	"0"	2	"1"
2	157	"C:\Experiments\Bartholow Lab\Hannah Volpert\stimuli\Black3.jpg"	"sewage"	"1"	"forehead"	"1"	"111"	657	4	"0"	2	"1"
2	158	"C:\Experiments\Bartholow Lab\Hannah Volpert\stimuli\Black20.jpg"	"love"	"1"	"nose"	"2"	"132"	490	5	"0"	2	"0"
2	159	"C:\Experiments\Bartholow Lab\Hannah Volpert\stimuli\White11.jpg"	"success"	"2"	"forehead"	"2"	"212"	636	5	"0"	2	"1"
2	160	"C:\Experiments\Bartholow Lab\Hannah Volpert\stimuli\Black20.jpg"	"poison"	"1"	"nose"	"1"	"131"	559	4	"0"	2	"1"
2	161	"C:\Experiments\Bartholow Lab\Hannah Volpert\stimuli\White7.jpg"	"despair"	"2"	"eyes"	"1"	"221"	515	4	"0"	2	"0"
2	162	"C:\Experiments\Bartholow Lab\Hannah Volpert\stimuli\Black9.jpg"	"sewage"	"1"	"forehead"	"1"	"111"	601	4	"0"	2	"1"
2	163	"C:\Experiments\Bartholow Lab\Hannah Volpert\stimuli\Black5.jpg"	"despair"	"1"	"forehead"	"1"	"111"	549	4	"0"	2	"1"
2	164	"C:\Experiments\Bartholow Lab\Hannah Volpert\stimuli\Black12.jpg"	"vomit"	"1"	"eyes"	"1"	"121"	533	4	"0"	2	"1"
2	165	"C:\Experiments\Bartholow Lab\Hannah Volpert\stimuli\Black7.jpg"	"poison"	"1"	"nose"	"1"	"131"	532	4	"0"	2	"1"
2	166	"C:\Experiments\Bartholow Lab\Hannah Volpert\stimuli\Black6.jpg"	"sewage"	"1"	"nose"	"1"	"131"	594	4	"0"	2	"1"
2	167	"C:\Experiments\Bartholow Lab\Hannah Volpert\stimuli\White11.jpg"	"disgust"	"2"	"nose"	"1"	"231"	571	4	"0"	2	"0"
2	168	"C:\Experiments\Bartholow Lab\Hannah Volpert\stimuli\White15.jpg"	"love"	"2"	"forehead"	"2"	"212"	562	5	"0"	2	"1"
2	169	"C:\Experiments\Bartholow Lab\Hannah Volpert\stimuli\Black13.jpg"	"sewage"	"1"	"nose"	"1"	"131"	550	4	"0"	2	"1"
2	170	"C:\Experiments\Bartholow Lab\Hannah Volpert\stimuli\Black11.jpg"	"despair"	"1"	"nose"	"1"	"131"	513	4	"0"	2	"1"
2	171	"C:\Experiments\Bartholow Lab\Hannah Volpert\stimuli\White14.jpg"	"smile"	"2"	"eyes"	"2"	"222"	511	5	"0"	2	"1"
2	172	"C:\Experiments\Bartholow Lab\Hannah Volpert\stimuli\Black21.jpg"	"success"	"1"	"forehead"	"2"	"112"	558	5	"0"	2	"0"
2	173	"C:\Experiments\Bartholow Lab\Hannah Volpert\stimuli\Black10.jpg"	"vacation"	"1"	"forehead"	"2"	"112"	734	5	"0"	2	"0"
2	174	"C:\Experiments\Bartholow Lab\Hannah Volpert\stimuli\White10.jpg"	"paradise"	"2"	"nose"	"2"	"232"	706	5	"0"	2	"1"
2	175	"C:\Experiments\Bartholow Lab\Hannah Volpert\stimuli\Black24.jpg"	"sewage"	"1"	"eyes"	"1"	"121"	557	4	"0"	2	"1"
2	176	"C:\Experiments\Bartholow Lab\Hannah Volpert\stimuli\White21.jpg"	"sewage"	"2"	"nose"	"1"	"231"	675	4	"0"	2	"0"
2	177	"C:\Experiments\Bartholow Lab\Hannah Volpert\stimuli\White22.jpg"	"pest"	"2"	"forehead"	"1"	"211"	745	4	"0"	2	"0"
2	178	"C:\Experiments\Bartholow Lab\Hannah Volpert\stimuli\Black14.jpg"	"disgust"	"1"	"eyes"	"1"	"121"	610	4	"0"	2	"1"
2	179	"C:\Experiments\Bartholow Lab\Hannah Volpert\stimuli\Black15.jpg"	"joy"	"1"	"nose"	"2"	"132"	556	5	"0"	2	"0"
2	180	"C:\Experiments\Bartholow Lab\Hannah Volpert\stimuli\Black9.jpg"	"romance"	"1"	"eyes"	"2"	"122"	652	5	"0"	2	"0"
2	181	"C:\Experiments\Bartholow Lab\Hannah Volpert\stimuli\White9.jpg"	"disgust"	"2"	"eyes"	"1"	"221"	563	4	"0"	2	"0"
2	182	"C:\Experiments\Bartholow Lab\Hannah Volpert\stimuli\Black8.jpg"	"love"	"1"	"nose"	"2"	"132"	511	5	"0"	2	"0"
2	183	"C:\Experiments\Bartholow Lab\Hannah Volpert\stimuli\Black8.jpg"	"smile"	"1"	"forehead"	"2"	"112"	551	5	"0"	2	"0"
2	184	"C:\Experiments\Bartholow Lab\Hannah Volpert\stimuli\White17.jpg"	"sewage"	"2"	"nose"	"1"	"231"	584	4	"0"	2	"0"
2	185	"C:\Experiments\Bartholow Lab\Hannah Volpert\stimuli\White4.jpg"	"cockroach"	"2"	"eyes"	"1"	"221"	538	4	"0"	2	"0"
2	186	"C:\Experiments\Bartholow Lab\Hannah Volpert\stimuli\Black10.jpg"	"love"	"1"	"eyes"	"2"	"122"	683	5	"0"	2	"0"
2	187	"C:\Experiments\Bartholow Lab\Hannah Volpert\stimuli\Black18.jpg"	"romance"	"1"	"nose"	"2"	"132"	614	5	"0"	2	"0"
2	188	"C:\Experiments\Bartholow Lab\Hannah Volpert\stimuli\White12.jpg"	"despair"	"2"	"forehead"	"1"	"211"	546	4	"0"	2	"0"
2	189	"C:\Experiments\Bartholow Lab\Hannah Volpert\stimuli\Black3.jpg"	"smile"	"1"	"nose"	"2"	"132"	622	5	"0"	2	"0"
2	190	"C:\Experiments\Bartholow Lab\Hannah Volpert\stimuli\Black16.jpg"	"pest"	"1"	"eyes"	"1"	"121"	460	4	"0"	2	"1"
2	191	"C:\Experiments\Bartholow Lab\Hannah Volpert\stimuli\White16.jpg"	"success"	"2"	"forehead"	"2"	"212"	602	5	"0"	2	"1"
2	192	"C:\Experiments\Bartholow Lab\Hannah Volpert\stimuli\Black14.jpg"	"cockroach"	"1"	"nose"	"1"	"131"	582	4	"0"	2	"1"
2	193	"C:\Experiments\Bartholow Lab\Hannah Volpert\stimuli\Black10.jpg"	"beauty"	"1"	"nose"	"2"	"132"	588	5	"0"	2	"0"
2	194	"C:\Experiments\Bartholow Lab\Hannah Volpert\stimuli\White8.jpg"	"vomit"	"2"	"nose"	"1"	"231"	629	4	"0"	2	"0"
2	195	"C:\Experiments\Bartholow Lab\Hannah Volpert\stimuli\White17.jpg"	"vomit"	"2"	"eyes"	"1"	"221"	566	4	"0"	2	"0"
2	196	"C:\Experiments\Bartholow Lab\Hannah Volpert\stimuli\White8.jpg"	"garbage"	"2"	"forehead"	"1"	"211"	617	4	"0"	2	"0"
2	197	"C:\Experiments\Bartholow Lab\Hannah Volpert\stimuli\White5.jpg"	"garbage"	"2"	"eyes"	"1"	"221"	599	4	"0"	2	"0"
2	198	"C:\Experiments\Bartholow Lab\Hannah Volpert\stimuli\Black7.jpg"	"beauty"	"1"	"nose"	"2"	"132"	547	5	"0"	2	"0"
2	199	"C:\Experiments\Bartholow Lab\Hannah Volpert\stimuli\Black19.jpg"	"beauty"	"1"	"nose"	"2"	"132"	580	5	"0"	2	"0"
2	200	"C:\Experiments\Bartholow Lab\Hannah Volpert\stimuli\Black12.jpg"	"pest"	"1"	"forehead"	"1"	"111"	455	4	"0"	2	"1"
2	201	"C:\Experiments\Bartholow Lab\Hannah Volpert\stimuli\White19.jpg"	"romance"	"2"	"forehead"	"2"	"212"	507	5	"0"	2	"1"
2	202	"C:\Experiments\Bartholow Lab\Hannah Volpert\stimuli\Black22.jpg"	"vomit"	"1"	"eyes"	"1"	"121"	532	4	"0"	2	"1"
2	203	"C:\Experiments\Bartholow Lab\Hannah Volpert\stimuli\White18.jpg"	"poison"	"2"	"nose"	"1"	"231"	583	4	"0"	2	"0"
2	204	"C:\Experiments\Bartholow Lab\Hannah Volpert\stimuli\Black13.jpg"	"success"	"1"	"nose"	"2"	"132"	701	5	"0"	2	"0"
2	205	"C:\Experiments\Bartholow Lab\Hannah Volpert\stimuli\Black9.jpg"	"joy"	"1"	"nose"	"2"	"132"	652	5	"0"	2	"0"
2	206	"C:\Experiments\Bartholow Lab\Hannah Volpert\stimuli\Black6.jpg"	"paradise"	"1"	"forehead"	"2"	"112"	738	5	"0"	2	"0"
2	207	"C:\Experiments\Bartholow Lab\Hannah Volpert\stimuli\Black12.jpg"	"cockroach"	"1"	"nose"	"1"	"131"	600	4	"0"	2	"1"
2	208	"C:\Experiments\Bartholow Lab\Hannah Volpert\stimuli\Black14.jpg"	"success"	"1"	"eyes"	"2"	"122"	561	5	"0"	2	"0"
2	209	"C:\Experiments\Bartholow Lab\Hannah Volpert\stimuli\Black9.jpg"	"success"	"1"	"forehead"	"2"	"112"	578	5	"0"	2	"0"
2	210	"C:\Experiments\Bartholow Lab\Hannah Volpert\stimuli\Black17.jpg"	"success"	"1"	"forehead"	"2"	"112"	485	5	"0"	2	"0"
2	211	"C:\Experiments\Bartholow Lab\Hannah Volpert\stimuli\Black1.jpg"	"cockroach"	"1"	"eyes"	"1"	"121"	516	4	"0"	2	"1"
2	212	"C:\Experiments\Bartholow Lab\Hannah Volpert\stimuli\White6.jpg"	"cockroach"	"2"	"nose"	"1"	"231"	556	4	"0"	2	"0"
2	213	"C:\Experiments\Bartholow Lab\Hannah Volpert\stimuli\Black3.jpg"	"disgust"	"1"	"eyes"	"1"	"121"	488	4	"0"	2	"1"
2	214	"C:\Experiments\Bartholow Lab\Hannah Volpert\stimuli\Black4.jpg"	"garbage"	"1"	"nose"	"1"	"131"	620	4	"0"	2	"1"
2	215	"C:\Experiments\Bartholow Lab\Hannah Volpert\stimuli\White23.jpg"	"success"	"2"	"eyes"	"2"	"222"	674	5	"0"	2	"1"
2	216	"C:\Experiments\Bartholow Lab\Hannah Volpert\stimuli\Black20.jpg"	"vomit"	"1"	"eyes"	"1"	"121"	606	4	"0"	2	"1"
2	217	"C:\Experiments\Bartholow Lab\Hannah Volpert\stimuli\Black16.jpg"	"garbage"	"1"	"forehead"	"1"	"111"	472	4	"0"	2	"1"
2	218	"C:\Experiments\Bartholow Lab\Hannah Volpert\stimuli\Black20.jpg"	"disgust"	"1"	"forehead"	"1"	"111"	635	4	"0"	2	"1"
2	219	"C:\Experiments\Bartholow Lab\Hannah Volpert\stimuli\Black12.jpg"	"paradise"	"1"	"nose"	"2"	"132"	444	4	"1"	2	"0"
2	220	"C:\Experiments\Bartholow Lab\Hannah Volpert\stimuli\White11.jpg"	"love"	"2"	"nose"	"2"	"232"	472	5	"0"	2	"1"
2	221	"C:\Experiments\Bartholow Lab\Hannah Volpert\stimuli\White2.jpg"	"romance"	"2"	"nose"	"2"	"232"	646	5	"0"	2	"1"
2	222	"C:\Experiments\Bartholow Lab\Hannah Volpert\stimuli\White10.jpg"	"beauty"	"2"	"forehead"	"2"	"212"	585	5	"0"	2	"1"
2	223	"C:\Experiments\Bartholow Lab\Hannah Volpert\stimuli\White2.jpg"	"paradise"	"2"	"forehead"	"2"	"212"	546	5	"0"	2	"1"
2	224	"C:\Experiments\Bartholow Lab\Hannah Volpert\stimuli\White14.jpg"	"poison"	"2"	"forehead"	"1"	"211"	585	4	"0"	2	"0"
2	225	"C:\Experiments\Bartholow Lab\Hannah Volpert\stimuli\White15.jpg"	"vacation"	"2"	"nose"	"2"	"232"	671	5	"0"	2	"1"
2	226	"C:\Experiments\Bartholow Lab\Hannah Volpert\stimuli\White6.jpg"	"poison"	"2"	"eyes"	"1"	"221"	568	4	"0"	2	"0"
2	227	"C:\Experiments\Bartholow Lab\Hannah Volpert\stimuli\White23.jpg"	"disgust"	"2"	"forehead"	"1"	"211"	809.782456790829	4	"0"	2	"0"
2	228	"C:\Experiments\Bartholow Lab\Hannah Volpert\stimuli\White18.jpg"	"beauty"	"2"	"forehead"	"2"	"212"	498	5	"0"	2	"1"
2	229	"C:\Experiments\Bartholow Lab\Hannah Volpert\stimuli\White24.jpg"	"cockroach"	"2"	"forehead"	"1"	"211"	581	4	"0"	2	"0"
2	230	"C:\Experiments\Bartholow Lab\Hannah Volpert\stimuli\Black14.jpg"	"smile"	"1"	"nose"	"2"	"132"	475	5	"0"	2	"0"
2	231	"C:\Experiments\Bartholow Lab\Hannah Volpert\stimuli\Black12.jpg"	"romance"	"1"	"eyes"	"2"	"122"	585	5	"0"	2	"0"
2	232	"C:\Experiments\Bartholow Lab\Hannah Volpert\stimuli\Black22.jpg"	"poison"	"1"	"nose"	"1"	"131"	450	4	"0"	2	"1"
2	233	"C:\Experiments\Bartholow Lab\Hannah Volpert\stimuli\White9.jpg"	"sewage"	"2"	"nose"	"1"	"231"	651	4	"0"	2	"0"
2	234	"C:\Experiments\Bartholow Lab\Hannah Volpert\stimuli\Black11.jpg"	"smile"	"1"	"eyes"	"2"	"122"	521	5	"0"	2	"0"
2	235	"C:\Experiments\Bartholow Lab\Hannah Volpert\stimuli\White4.jpg"	"love"	"2"	"nose"	"2"	"232"	533	5	"0"	2	"1"
2	236	"C:\Experiments\Bartholow Lab\Hannah Volpert\stimuli\White13.jpg"	"beauty"	"2"	"nose"	"2"	"232"	515	5	"0"	2	"1"
2	237	"C:\Experiments\Bartholow Lab\Hannah Volpert\stimuli\White3.jpg"	"vacation"	"2"	"eyes"	"2"	"222"	543	5	"0"	2	"1"
2	238	"C:\Experiments\Bartholow Lab\Hannah Volpert\stimuli\White1.jpg"	"pest"	"2"	"eyes"	"1"	"221"	687	4	"0"	2	"0"
2	239	"C:\Experiments\Bartholow Lab\Hannah Volpert\stimuli\Black18.jpg"	"poison"	"1"	"nose"	"1"	"131"	571	4	"0"	2	"1"
2	240	"C:\Experiments\Bartholow Lab\Hannah Volpert\stimuli\White13.jpg"	"sewage"	"2"	"nose"	"1"	"231"	511	4	"0"	2	"0"
2	241	"C:\Experiments\Bartholow Lab\Hannah Volpert\stimuli\White19.jpg"	"disgust"	"2"	"forehead"	"1"	"211"	618	4	"0"	2	"0"
2	242	"C:\Experiments\Bartholow Lab\Hannah Volpert\stimuli\White16.jpg"	"romance"	"2"	"eyes"	"2"	"222"	504	5	"0"	2	"1"
2	243	"C:\Experiments\Bartholow Lab\Hannah Volpert\stimuli\Black15.jpg"	"despair"	"1"	"eyes"	"1"	"121"	590	4	"0"	2	"1"
2	244	"C:\Experiments\Bartholow Lab\Hannah Volpert\stimuli\White14.jpg"	"smile"	"2"	"forehead"	"2"	"212"	490	5	"0"	2	"1"
2	245	"C:\Experiments\Bartholow Lab\Hannah Volpert\stimuli\Black5.jpg"	"beauty"	"1"	"nose"	"2"	"132"	510	5	"0"	2	"0"
2	246	"C:\Experiments\Bartholow Lab\Hannah Volpert\stimuli\Black21.jpg"	"cockroach"	"1"	"eyes"	"1"	"121"	562	4	"0"	2	"1"
2	247	"C:\Experiments\Bartholow Lab\Hannah Volpert\stimuli\White12.jpg"	"success"	"2"	"nose"	"2"	"232"	518	5	"0"	2	"1"
2	248	"C:\Experiments\Bartholow Lab\Hannah Volpert\stimuli\White4.jpg"	"disgust"	"2"	"nose"	"1"	"231"	574	4	"0"	2	"0"
2	249	"C:\Experiments\Bartholow Lab\Hannah Volpert\stimuli\White7.jpg"	"vacation"	"2"	"forehead"	"2"	"212"	560	5	"0"	2	"1"
2	250	"C:\Experiments\Bartholow Lab\Hannah Volpert\stimuli\White3.jpg"	"smile"	"2"	"nose"	"2"	"232"	739	5	"0"	2	"1"
2	251	"C:\Experiments\Bartholow Lab\Hannah Volpert\stimuli\Black9.jpg"	"vomit"	"1"	"eyes"	"1"	"121"	522	4	"0"	2	"1"
2	252	"C:\Experiments\Bartholow Lab\Hannah Volpert\stimuli\Black11.jpg"	"smile"	"1"	"nose"	"2"	"132"	610	5	"0"	2	"0"
2	253	"C:\Experiments\Bartholow Lab\Hannah Volpert\stimuli\White2.jpg"	"poison"	"2"	"forehead"	"1"	"211"	534	4	"0"	2	"0"
2	254	"C:\Experiments\Bartholow Lab\Hannah Volpert\stimuli\Black2.jpg"	"joy"	"1"	"forehead"	"2"	"112"	439	5	"0"	2	"0"
2	255	"C:\Experiments\Bartholow Lab\Hannah Volpert\stimuli\White8.jpg"	"beauty"	"2"	"nose"	"2"	"232"	723	5	"0"	2	"1"
2	256	"C:\Experiments\Bartholow Lab\Hannah Volpert\stimuli\Black11.jpg"	"garbage"	"1"	"forehead"	"1"	"111"	532	4	"0"	2	"1"
2	257	"C:\Experiments\Bartholow Lab\Hannah Volpert\stimuli\Black19.jpg"	"garbage"	"1"	"nose"	"1"	"131"	573	4	"0"	2	"1"
2	258	"C:\Experiments\Bartholow Lab\Hannah Volpert\stimuli\Black18.jpg"	"sewage"	"1"	"eyes"	"1"	"121"	551	4	"0"	2	"1"
2	259	"C:\Experiments\Bartholow Lab\Hannah Volpert\stimuli\Black19.jpg"	"vomit"	"1"	"eyes"	"1"	"121"	527	4	"0"	2	"1"
2	260	"C:\Experiments\Bartholow Lab\Hannah Volpert\stimuli\Black11.jpg"	"poison"	"1"	"eyes"	"1"	"121"	565	4	"0"	2	"1"
2	261	"C:\Experiments\Bartholow Lab\Hannah Volpert\stimuli\White23.jpg"	"poison"	"2"	"nose"	"1"	"231"	625	4	"0"	2	"0"
2	262	"C:\Experiments\Bartholow Lab\Hannah Volpert\stimuli\White21.jpg"	"paradise"	"2"	"eyes"	"2"	"222"	743	5	"0"	2	"1"
2	263	"C:\Experiments\Bartholow Lab\Hannah Volpert\stimuli\Black5.jpg"	"love"	"1"	"forehead"	"2"	"112"	736	5	"0"	2	"0"
2	264	"C:\Experiments\Bartholow Lab\Hannah Volpert\stimuli\Black23.jpg"	"paradise"	"1"	"forehead"	"2"	"112"	577	5	"0"	2	"0"
2	265	"C:\Experiments\Bartholow Lab\Hannah Volpert\stimuli\Black19.jpg"	"disgust"	"1"	"forehead"	"1"	"111"	487	4	"0"	2	"1"
2	266	"C:\Experiments\Bartholow Lab\Hannah Volpert\stimuli\Black13.jpg"	"poison"	"1"	"eyes"	"1"	"121"	587	4	"0"	2	"1"
2	267	"C:\Experiments\Bartholow Lab\Hannah Volpert\stimuli\Black3.jpg"	"poison"	"1"	"nose"	"1"	"131"	590	4	"0"	2	"1"
2	268	"C:\Experiments\Bartholow Lab\Hannah Volpert\stimuli\Black23.jpg"	"despair"	"1"	"eyes"	"1"	"121"	538	4	"0"	2	"1"
2	269	"C:\Experiments\Bartholow Lab\Hannah Volpert\stimuli\Black18.jpg"	"beauty"	"1"	"eyes"	"2"	"122"	555	5	"0"	2	"0"
2	270	"C:\Experiments\Bartholow Lab\Hannah Volpert\stimuli\White10.jpg"	"poison"	"2"	"nose"	"1"	"231"	460	4	"0"	2	"0"
2	271	"C:\Experiments\Bartholow Lab\Hannah Volpert\stimuli\White16.jpg"	"disgust"	"2"	"forehead"	"1"	"211"	538	4	"0"	2	"0"
2	272	"C:\Experiments\Bartholow Lab\Hannah Volpert\stimuli\Black16.jpg"	"romance"	"1"	"nose"	"2"	"132"	424	5	"0"	2	"0"
2	273	"C:\Experiments\Bartholow Lab\Hannah Volpert\stimuli\Black13.jpg"	"garbage"	"1"	"forehead"	"1"	"111"	526	4	"0"	2	"1"
2	274	"C:\Experiments\Bartholow Lab\Hannah Volpert\stimuli\White24.jpg"	"smile"	"2"	"eyes"	"2"	"222"	535	5	"0"	2	"1"
2	275	"C:\Experiments\Bartholow Lab\Hannah Volpert\stimuli\Black2.jpg"	"vomit"	"1"	"forehead"	"1"	"111"	533	4	"0"	2	"1"
2	276	"C:\Experiments\Bartholow Lab\Hannah Volpert\stimuli\Black16.jpg"	"beauty"	"1"	"forehead"	"2"	"112"	564	5	"0"	2	"0"
2	277	"C:\Experiments\Bartholow Lab\Hannah Volpert\stimuli\Black23.jpg"	"garbage"	"1"	"forehead"	"1"	"111"	400	4	"0"	2	"1"
2	278	"C:\Experiments\Bartholow Lab\Hannah Volpert\stimuli\Black1.jpg"	"beauty"	"1"	"nose"	"2"	"132"	542	5	"0"	2	"0"
2	279	"C:\Experiments\Bartholow Lab\Hannah Volpert\stimuli\White6.jpg"	"sewage"	"2"	"forehead"	"1"	"211"	572	4	"0"	2	"0"
2	280	"C:\Experiments\Bartholow Lab\Hannah Volpert\stimuli\White21.jpg"	"smile"	"2"	"forehead"	"2"	"212"	471	5	"0"	2	"1"
2	281	"C:\Experiments\Bartholow Lab\Hannah Volpert\stimuli\Black16.jpg"	"vomit"	"1"	"nose"	"1"	"131"	518	4	"0"	2	"1"
2	282	"C:\Experiments\Bartholow Lab\Hannah Volpert\stimuli\Black1.jpg"	"despair"	"1"	"nose"	"1"	"131"	535	4	"0"	2	"1"
2	283	"C:\Experiments\Bartholow Lab\Hannah Volpert\stimuli\Black15.jpg"	"paradise"	"1"	"forehead"	"2"	"112"	491	4	"1"	2	"0"
2	284	"C:\Experiments\Bartholow Lab\Hannah Volpert\stimuli\Black23.jpg"	"beauty"	"1"	"nose"	"2"	"132"	574	5	"0"	2	"0"
2	285	"C:\Experiments\Bartholow Lab\Hannah Volpert\stimuli\Black10.jpg"	"pest"	"1"	"nose"	"1"	"131"	564	4	"0"	2	"1"
2	286	"C:\Experiments\Bartholow Lab\Hannah Volpert\stimuli\Black22.jpg"	"vacation"	"1"	"eyes"	"2"	"122"	616	5	"0"	2	"0"
2	287	"C:\Experiments\Bartholow Lab\Hannah Volpert\stimuli\Black10.jpg"	"disgust"	"1"	"forehead"	"1"	"111"	694	4	"0"	2	"1"
2	288	"C:\Experiments\Bartholow Lab\Hannah Volpert\stimuli\White14.jpg"	"poison"	"2"	"eyes"	"1"	"221"	634	4	"0"	2	"0"
2	1	"C:\Experiments\Bartholow Lab\Hannah Volpert\stimuli\White12.jpg"	"vomit"	"2"	"eyes"	"1"	"221"	609	4	"0"	3	"0"
2	2	"C:\Experiments\Bartholow Lab\Hannah Volpert\stimuli\White9.jpg"	"disgust"	"2"	"forehead"	"1"	"211"	588	4	"0"	3	"0"
2	3	"C:\Experiments\Bartholow Lab\Hannah Volpert\stimuli\White23.jpg"	"sewage"	"2"	"eyes"	"1"	"221"	637	4	"0"	3	"0"
2	4	"C:\Experiments\Bartholow Lab\Hannah Volpert\stimuli\White12.jpg"	"disgust"	"2"	"forehead"	"1"	"211"	556	4	"0"	3	"0"
2	5	"C:\Experiments\Bartholow Lab\Hannah Volpert\stimuli\Black11.jpg"	"despair"	"1"	"eyes"	"1"	"121"	504	4	"0"	3	"1"
2	6	"C:\Experiments\Bartholow Lab\Hannah Volpert\stimuli\Black10.jpg"	"pest"	"1"	"forehead"	"1"	"111"	529	4	"0"	3	"1"
2	7	"C:\Experiments\Bartholow Lab\Hannah Volpert\stimuli\White21.jpg"	"paradise"	"2"	"eyes"	"2"	"222"	594	5	"0"	3	"1"
2	8	"C:\Experiments\Bartholow Lab\Hannah Volpert\stimuli\Black9.jpg"	"beauty"	"1"	"forehead"	"2"	"112"	525	5	"0"	3	"0"
2	9	"C:\Experiments\Bartholow Lab\Hannah Volpert\stimuli\White16.jpg"	"cockroach"	"2"	"forehead"	"1"	"211"	569	4	"0"	3	"0"
2	10	"C:\Experiments\Bartholow Lab\Hannah Volpert\stimuli\Black20.jpg"	"cockroach"	"1"	"forehead"	"1"	"111"	527	4	"0"	3	"1"
2	11	"C:\Experiments\Bartholow Lab\Hannah Volpert\stimuli\White11.jpg"	"sewage"	"2"	"forehead"	"1"	"211"	539	4	"0"	3	"0"
2	12	"C:\Experiments\Bartholow Lab\Hannah Volpert\stimuli\White13.jpg"	"garbage"	"2"	"nose"	"1"	"231"	489	4	"0"	3	"0"
2	13	"C:\Experiments\Bartholow Lab\Hannah Volpert\stimuli\White16.jpg"	"joy"	"2"	"forehead"	"2"	"212"	540	5	"0"	3	"1"
2	14	"C:\Experiments\Bartholow Lab\Hannah Volpert\stimuli\Black17.jpg"	"sewage"	"1"	"eyes"	"1"	"121"	456	4	"0"	3	"1"
2	15	"C:\Experiments\Bartholow Lab\Hannah Volpert\stimuli\White17.jpg"	"joy"	"2"	"eyes"	"2"	"222"	499	5	"0"	3	"1"
2	16	"C:\Experiments\Bartholow Lab\Hannah Volpert\stimuli\Black17.jpg"	"paradise"	"1"	"nose"	"2"	"132"	532	5	"0"	3	"0"
2	17	"C:\Experiments\Bartholow Lab\Hannah Volpert\stimuli\White19.jpg"	"success"	"2"	"nose"	"2"	"232"	530	5	"0"	3	"1"
2	18	"C:\Experiments\Bartholow Lab\Hannah Volpert\stimuli\White8.jpg"	"vacation"	"2"	"nose"	"2"	"232"	686	5	"0"	3	"1"
2	19	"C:\Experiments\Bartholow Lab\Hannah Volpert\stimuli\White21.jpg"	"love"	"2"	"nose"	"2"	"232"	527	5	"0"	3	"1"
2	20	"C:\Experiments\Bartholow Lab\Hannah Volpert\stimuli\White19.jpg"	"romance"	"2"	"forehead"	"2"	"212"	477	5	"0"	3	"1"
2	21	"C:\Experiments\Bartholow Lab\Hannah Volpert\stimuli\Black13.jpg"	"pest"	"1"	"nose"	"1"	"131"	587	4	"0"	3	"1"
2	22	"C:\Experiments\Bartholow Lab\Hannah Volpert\stimuli\Black18.jpg"	"poison"	"1"	"nose"	"1"	"131"	548	4	"0"	3	"1"
2	23	"C:\Experiments\Bartholow Lab\Hannah Volpert\stimuli\Black24.jpg"	"love"	"1"	"eyes"	"2"	"122"	520	5	"0"	3	"0"
2	24	"C:\Experiments\Bartholow Lab\Hannah Volpert\stimuli\Black10.jpg"	"poison"	"1"	"eyes"	"1"	"121"	547	4	"0"	3	"1"
2	25	"C:\Experiments\Bartholow Lab\Hannah Volpert\stimuli\Black8.jpg"	"disgust"	"1"	"nose"	"1"	"131"	516	4	"0"	3	"1"
2	26	"C:\Experiments\Bartholow Lab\Hannah Volpert\stimuli\White20.jpg"	"beauty"	"2"	"nose"	"2"	"232"	453	5	"0"	3	"1"
2	27	"C:\Experiments\Bartholow Lab\Hannah Volpert\stimuli\Black9.jpg"	"smile"	"1"	"eyes"	"2"	"122"	499	5	"0"	3	"0"
2	28	"C:\Experiments\Bartholow Lab\Hannah Volpert\stimuli\White21.jpg"	"sewage"	"2"	"forehead"	"1"	"211"	525	4	"0"	3	"0"
2	29	"C:\Experiments\Bartholow Lab\Hannah Volpert\stimuli\Black15.jpg"	"pest"	"1"	"nose"	"1"	"131"	438	4	"0"	3	"1"
2	30	"C:\Experiments\Bartholow Lab\Hannah Volpert\stimuli\Black1.jpg"	"vomit"	"1"	"forehead"	"1"	"111"	460	4	"0"	3	"1"
2	31	"C:\Experiments\Bartholow Lab\Hannah Volpert\stimuli\Black4.jpg"	"pest"	"1"	"nose"	"1"	"131"	540	4	"0"	3	"1"
2	32	"C:\Experiments\Bartholow Lab\Hannah Volpert\stimuli\Black5.jpg"	"love"	"1"	"eyes"	"2"	"122"	525	5	"0"	3	"0"
2	33	"C:\Experiments\Bartholow Lab\Hannah Volpert\stimuli\Black24.jpg"	"paradise"	"1"	"nose"	"2"	"132"	540	5	"0"	3	"0"
2	34	"C:\Experiments\Bartholow Lab\Hannah Volpert\stimuli\White9.jpg"	"beauty"	"2"	"eyes"	"2"	"222"	524	5	"0"	3	"1"
2	35	"C:\Experiments\Bartholow Lab\Hannah Volpert\stimuli\Black11.jpg"	"cockroach"	"1"	"forehead"	"1"	"111"	579	4	"0"	3	"1"
2	36	"C:\Experiments\Bartholow Lab\Hannah Volpert\stimuli\Black21.jpg"	"pest"	"1"	"nose"	"1"	"131"	558	4	"0"	3	"1"
2	37	"C:\Experiments\Bartholow Lab\Hannah Volpert\stimuli\Black11.jpg"	"garbage"	"1"	"nose"	"1"	"131"	634	4	"0"	3	"1"
2	38	"C:\Experiments\Bartholow Lab\Hannah Volpert\stimuli\White16.jpg"	"beauty"	"2"	"eyes"	"2"	"222"	507	5	"0"	3	"1"
2	39	"C:\Experiments\Bartholow Lab\Hannah Volpert\stimuli\Black4.jpg"	"smile"	"1"	"forehead"	"2"	"112"	598	5	"0"	3	"0"
2	40	"C:\Experiments\Bartholow Lab\Hannah Volpert\stimuli\White18.jpg"	"success"	"2"	"nose"	"2"	"232"	610	5	"0"	3	"1"
2	41	"C:\Experiments\Bartholow Lab\Hannah Volpert\stimuli\Black23.jpg"	"romance"	"1"	"nose"	"2"	"132"	462	5	"0"	3	"0"
2	42	"C:\Experiments\Bartholow Lab\Hannah Volpert\stimuli\White17.jpg"	"disgust"	"2"	"eyes"	"1"	"221"	492	4	"0"	3	"0"
2	43	"C:\Experiments\Bartholow Lab\Hannah Volpert\stimuli\Black19.jpg"	"success"	"1"	"nose"	"2"	"132"	463	5	"0"	3	"0"
2	44	"C:\Experiments\Bartholow Lab\Hannah Volpert\stimuli\Black11.jpg"	"love"	"1"	"forehead"	"2"	"112"	534	5	"0"	3	"0"
2	45	"C:\Experiments\Bartholow Lab\Hannah Volpert\stimuli\Black8.jpg"	"pest"	"1"	"eyes"	"1"	"121"	516	4	"0"	3	"1"
2	46	"C:\Experiments\Bartholow Lab\Hannah Volpert\stimuli\White2.jpg"	"joy"	"2"	"forehead"	"2"	"212"	509	5	"0"	3	"1"
2	47	"C:\Experiments\Bartholow Lab\Hannah Volpert\stimuli\White10.jpg"	"romance"	"2"	"nose"	"2"	"232"	550	4	"1"	3	"1"
2	48	"C:\Experiments\Bartholow Lab\Hannah Volpert\stimuli\White24.jpg"	"paradise"	"2"	"nose"	"2"	"232"	550	5	"0"	3	"1"
2	49	"C:\Experiments\Bartholow Lab\Hannah Volpert\stimuli\Black10.jpg"	"paradise"	"1"	"eyes"	"2"	"122"	551	5	"0"	3	"0"
2	50	"C:\Experiments\Bartholow Lab\Hannah Volpert\stimuli\White3.jpg"	"disgust"	"2"	"forehead"	"1"	"211"	568	4	"0"	3	"0"
2	51	"C:\Experiments\Bartholow Lab\Hannah Volpert\stimuli\White10.jpg"	"vacation"	"2"	"eyes"	"2"	"222"	524	5	"0"	3	"1"
2	52	"C:\Experiments\Bartholow Lab\Hannah Volpert\stimuli\Black14.jpg"	"cockroach"	"1"	"nose"	"1"	"131"	578	4	"0"	3	"1"
2	53	"C:\Experiments\Bartholow Lab\Hannah Volpert\stimuli\Black18.jpg"	"pest"	"1"	"eyes"	"1"	"121"	568	4	"0"	3	"1"
2	54	"C:\Experiments\Bartholow Lab\Hannah Volpert\stimuli\Black7.jpg"	"despair"	"1"	"eyes"	"1"	"121"	732	4	"0"	3	"1"
2	55	"C:\Experiments\Bartholow Lab\Hannah Volpert\stimuli\Black22.jpg"	"vomit"	"1"	"forehead"	"1"	"111"	594	4	"0"	3	"1"
2	56	"C:\Experiments\Bartholow Lab\Hannah Volpert\stimuli\Black4.jpg"	"beauty"	"1"	"eyes"	"2"	"122"	558	5	"0"	3	"0"
2	57	"C:\Experiments\Bartholow Lab\Hannah Volpert\stimuli\White15.jpg"	"smile"	"2"	"nose"	"2"	"232"	575	5	"0"	3	"1"
2	58	"C:\Experiments\Bartholow Lab\Hannah Volpert\stimuli\White10.jpg"	"love"	"2"	"forehead"	"2"	"212"	549	5	"0"	3	"1"
2	59	"C:\Experiments\Bartholow Lab\Hannah Volpert\stimuli\Black16.jpg"	"despair"	"1"	"eyes"	"1"	"121"	550	4	"0"	3	"1"
2	60	"C:\Experiments\Bartholow Lab\Hannah Volpert\stimuli\Black22.jpg"	"disgust"	"1"	"nose"	"1"	"131"	550	4	"0"	3	"1"
2	61	"C:\Experiments\Bartholow Lab\Hannah Volpert\stimuli\White12.jpg"	"pest"	"2"	"nose"	"1"	"231"	807	4	"0"	3	"0"
2	62	"C:\Experiments\Bartholow Lab\Hannah Volpert\stimuli\Black8.jpg"	"love"	"1"	"nose"	"2"	"132"	507	5	"0"	3	"0"
2	63	"C:\Experiments\Bartholow Lab\Hannah Volpert\stimuli\White19.jpg"	"paradise"	"2"	"eyes"	"2"	"222"	545	5	"0"	3	"1"
2	64	"C:\Experiments\Bartholow Lab\Hannah Volpert\stimuli\Black5.jpg"	"romance"	"1"	"forehead"	"2"	"112"	594	5	"0"	3	"0"
2	65	"C:\Experiments\Bartholow Lab\Hannah Volpert\stimuli\White5.jpg"	"vomit"	"2"	"eyes"	"1"	"221"	555	4	"0"	3	"0"
2	66	"C:\Experiments\Bartholow Lab\Hannah Volpert\stimuli\Black23.jpg"	"vomit"	"1"	"forehead"	"1"	"111"	700	4	"0"	3	"1"
2	67	"C:\Experiments\Bartholow Lab\Hannah Volpert\stimuli\White16.jpg"	"despair"	"2"	"eyes"	"1"	"221"	506	4	"0"	3	"0"
2	68	"C:\Experiments\Bartholow Lab\Hannah Volpert\stimuli\Black15.jpg"	"success"	"1"	"nose"	"2"	"132"	483	5	"0"	3	"0"
2	69	"C:\Experiments\Bartholow Lab\Hannah Volpert\stimuli\White2.jpg"	"pest"	"2"	"eyes"	"1"	"221"	521	4	"0"	3	"0"
2	70	"C:\Experiments\Bartholow Lab\Hannah Volpert\stimuli\White18.jpg"	"smile"	"2"	"forehead"	"2"	"212"	554	5	"0"	3	"1"
2	71	"C:\Experiments\Bartholow Lab\Hannah Volpert\stimuli\White22.jpg"	"vomit"	"2"	"forehead"	"1"	"211"	489	4	"0"	3	"0"
2	72	"C:\Experiments\Bartholow Lab\Hannah Volpert\stimuli\Black2.jpg"	"sewage"	"1"	"forehead"	"1"	"111"	652	4	"0"	3	"1"
2	73	"C:\Experiments\Bartholow Lab\Hannah Volpert\stimuli\White6.jpg"	"romance"	"2"	"nose"	"2"	"232"	820.955217946827	5	"0"	3	"1"
2	74	"C:\Experiments\Bartholow Lab\Hannah Volpert\stimuli\Black21.jpg"	"poison"	"1"	"eyes"	"1"	"121"	620	4	"0"	3	"1"
2	75	"C:\Experiments\Bartholow Lab\Hannah Volpert\stimuli\Black16.jpg"	"paradise"	"1"	"nose"	"2"	"132"	619	5	"0"	3	"0"
2	76	"C:\Experiments\Bartholow Lab\Hannah Volpert\stimuli\Black22.jpg"	"joy"	"1"	"nose"	"2"	"132"	505	5	"0"	3	"0"
2	77	"C:\Experiments\Bartholow Lab\Hannah Volpert\stimuli\White18.jpg"	"sewage"	"2"	"nose"	"1"	"231"	532	4	"0"	3	"0"
2	78	"C:\Experiments\Bartholow Lab\Hannah Volpert\stimuli\Black17.jpg"	"romance"	"1"	"forehead"	"2"	"112"	571	5	"0"	3	"0"
2	79	"C:\Experiments\Bartholow Lab\Hannah Volpert\stimuli\Black4.jpg"	"despair"	"1"	"eyes"	"1"	"121"	497	4	"0"	3	"1"
2	80	"C:\Experiments\Bartholow Lab\Hannah Volpert\stimuli\White22.jpg"	"joy"	"2"	"nose"	"2"	"232"	519	5	"0"	3	"1"
2	81	"C:\Experiments\Bartholow Lab\Hannah Volpert\stimuli\Black6.jpg"	"sewage"	"1"	"forehead"	"1"	"111"	544	4	"0"	3	"1"
2	82	"C:\Experiments\Bartholow Lab\Hannah Volpert\stimuli\White1.jpg"	"despair"	"2"	"nose"	"1"	"231"	820.955217946827	4	"0"	3	"0"
2	83	"C:\Experiments\Bartholow Lab\Hannah Volpert\stimuli\Black4.jpg"	"success"	"1"	"nose"	"2"	"132"	541	5	"0"	3	"0"
2	84	"C:\Experiments\Bartholow Lab\Hannah Volpert\stimuli\White9.jpg"	"despair"	"2"	"eyes"	"1"	"221"	411	4	"0"	3	"0"
2	85	"C:\Experiments\Bartholow Lab\Hannah Volpert\stimuli\Black5.jpg"	"joy"	"1"	"nose"	"2"	"132"	590	5	"0"	3	"0"
2	86	"C:\Experiments\Bartholow Lab\Hannah Volpert\stimuli\White24.jpg"	"poison"	"2"	"forehead"	"1"	"211"	538	4	"0"	3	"0"
2	87	"C:\Experiments\Bartholow Lab\Hannah Volpert\stimuli\White7.jpg"	"success"	"2"	"forehead"	"2"	"212"	523	5	"0"	3	"1"
2	88	"C:\Experiments\Bartholow Lab\Hannah Volpert\stimuli\White1.jpg"	"poison"	"2"	"eyes"	"1"	"221"	598	4	"0"	3	"0"
2	89	"C:\Experiments\Bartholow Lab\Hannah Volpert\stimuli\Black13.jpg"	"despair"	"1"	"forehead"	"1"	"111"	594	4	"0"	3	"1"
2	90	"C:\Experiments\Bartholow Lab\Hannah Volpert\stimuli\White22.jpg"	"vomit"	"2"	"nose"	"1"	"231"	491	4	"0"	3	"0"
2	91	"C:\Experiments\Bartholow Lab\Hannah Volpert\stimuli\Black7.jpg"	"poison"	"1"	"nose"	"1"	"131"	414	4	"0"	3	"1"
2	92	"C:\Experiments\Bartholow Lab\Hannah Volpert\stimuli\Black12.jpg"	"sewage"	"1"	"forehead"	"1"	"111"	468	4	"0"	3	"1"
2	93	"C:\Experiments\Bartholow Lab\Hannah Volpert\stimuli\Black16.jpg"	"joy"	"1"	"forehead"	"2"	"112"	533	5	"0"	3	"0"
2	94	"C:\Experiments\Bartholow Lab\Hannah Volpert\stimuli\White24.jpg"	"disgust"	"2"	"eyes"	"1"	"221"	449	4	"0"	3	"0"
2	95	"C:\Experiments\Bartholow Lab\Hannah Volpert\stimuli\White8.jpg"	"joy"	"2"	"forehead"	"2"	"212"	492	5	"0"	3	"1"
2	96	"C:\Experiments\Bartholow Lab\Hannah Volpert\stimuli\Black18.jpg"	"love"	"1"	"eyes"	"2"	"122"	578	5	"0"	3	"0"
2	97	"C:\Experiments\Bartholow Lab\Hannah Volpert\stimuli\White24.jpg"	"smile"	"2"	"eyes"	"2"	"222"	601	5	"0"	3	"1"
2	98	"C:\Experiments\Bartholow Lab\Hannah Volpert\stimuli\Black24.jpg"	"sewage"	"1"	"nose"	"1"	"131"	532	4	"0"	3	"1"
2	99	"C:\Experiments\Bartholow Lab\Hannah Volpert\stimuli\White23.jpg"	"love"	"2"	"eyes"	"2"	"222"	458	5	"0"	3	"1"
2	100	"C:\Experiments\Bartholow Lab\Hannah Volpert\stimuli\White23.jpg"	"beauty"	"2"	"nose"	"2"	"232"	547	5	"0"	3	"1"
2	101	"C:\Experiments\Bartholow Lab\Hannah Volpert\stimuli\White14.jpg"	"garbage"	"2"	"eyes"	"1"	"221"	570	4	"0"	3	"0"
2	102	"C:\Experiments\Bartholow Lab\Hannah Volpert\stimuli\Black7.jpg"	"beauty"	"1"	"eyes"	"2"	"122"	493	5	"0"	3	"0"
2	103	"C:\Experiments\Bartholow Lab\Hannah Volpert\stimuli\White2.jpg"	"love"	"2"	"nose"	"2"	"232"	547	5	"0"	3	"1"
2	104	"C:\Experiments\Bartholow Lab\Hannah Volpert\stimuli\White12.jpg"	"beauty"	"2"	"forehead"	"2"	"212"	532	5	"0"	3	"1"
2	105	"C:\Experiments\Bartholow Lab\Hannah Volpert\stimuli\White5.jpg"	"vacation"	"2"	"nose"	"2"	"232"	820.955217946827	5	"0"	3	"1"
2	106	"C:\Experiments\Bartholow Lab\Hannah Volpert\stimuli\Black1.jpg"	"romance"	"1"	"forehead"	"2"	"112"	497	5	"0"	3	"0"
2	107	"C:\Experiments\Bartholow Lab\Hannah Volpert\stimuli\White22.jpg"	"joy"	"2"	"forehead"	"2"	"212"	631	5	"0"	3	"1"
2	108	"C:\Experiments\Bartholow Lab\Hannah Volpert\stimuli\White1.jpg"	"beauty"	"2"	"forehead"	"2"	"212"	520	5	"0"	3	"1"
2	109	"C:\Experiments\Bartholow Lab\Hannah Volpert\stimuli\Black10.jpg"	"vacation"	"1"	"nose"	"2"	"132"	547	5	"0"	3	"0"
2	110	"C:\Experiments\Bartholow Lab\Hannah Volpert\stimuli\Black15.jpg"	"love"	"1"	"eyes"	"2"	"122"	484	5	"0"	3	"0"
2	111	"C:\Experiments\Bartholow Lab\Hannah Volpert\stimuli\Black21.jpg"	"romance"	"1"	"nose"	"2"	"132"	592	5	"0"	3	"0"
2	112	"C:\Experiments\Bartholow Lab\Hannah Volpert\stimuli\Black13.jpg"	"paradise"	"1"	"forehead"	"2"	"112"	777	5	"0"	3	"0"
2	113	"C:\Experiments\Bartholow Lab\Hannah Volpert\stimuli\Black23.jpg"	"pest"	"1"	"nose"	"1"	"131"	567	4	"0"	3	"1"
2	114	"C:\Experiments\Bartholow Lab\Hannah Volpert\stimuli\White3.jpg"	"sewage"	"2"	"eyes"	"1"	"221"	586	4	"0"	3	"0"
2	115	"C:\Experiments\Bartholow Lab\Hannah Volpert\stimuli\Black2.jpg"	"vacation"	"1"	"eyes"	"2"	"122"	673	5	"0"	3	"0"
2	116	"C:\Experiments\Bartholow Lab\Hannah Volpert\stimuli\White15.jpg"	"pest"	"2"	"nose"	"1"	"231"	665	4	"0"	3	"0"
2	117	"C:\Experiments\Bartholow Lab\Hannah Volpert\stimuli\White11.jpg"	"poison"	"2"	"eyes"	"1"	"221"	530	4	"0"	3	"0"
2	118	"C:\Experiments\Bartholow Lab\Hannah Volpert\stimuli\Black20.jpg"	"sewage"	"1"	"eyes"	"1"	"121"	609	4	"0"	3	"1"
2	119	"C:\Experiments\Bartholow Lab\Hannah Volpert\stimuli\White2.jpg"	"cockroach"	"2"	"nose"	"1"	"231"	588	4	"0"	3	"0"
2	120	"C:\Experiments\Bartholow Lab\Hannah Volpert\stimuli\Black12.jpg"	"smile"	"1"	"forehead"	"2"	"112"	613	5	"0"	3	"0"
2	121	"C:\Experiments\Bartholow Lab\Hannah Volpert\stimuli\White11.jpg"	"paradise"	"2"	"forehead"	"2"	"212"	595	5	"0"	3	"1"
2	122	"C:\Experiments\Bartholow Lab\Hannah Volpert\stimuli\White10.jpg"	"cockroach"	"2"	"forehead"	"1"	"211"	524	4	"0"	3	"0"
2	123	"C:\Experiments\Bartholow Lab\Hannah Volpert\stimuli\White4.jpg"	"cockroach"	"2"	"eyes"	"1"	"221"	581	4	"0"	3	"0"
2	124	"C:\Experiments\Bartholow Lab\Hannah Volpert\stimuli\Black12.jpg"	"love"	"1"	"nose"	"2"	"132"	475	5	"0"	3	"0"
2	125	"C:\Experiments\Bartholow Lab\Hannah Volpert\stimuli\Black14.jpg"	"romance"	"1"	"eyes"	"2"	"122"	569	5	"0"	3	"0"
2	126	"C:\Experiments\Bartholow Lab\Hannah Volpert\stimuli\White15.jpg"	"sewage"	"2"	"forehead"	"1"	"211"	554	4	"0"	3	"0"
2	127	"C:\Experiments\Bartholow Lab\Hannah Volpert\stimuli\Black20.jpg"	"smile"	"1"	"eyes"	"2"	"122"	523	5	"0"	3	"0"
2	128	"C:\Experiments\Bartholow Lab\Hannah Volpert\stimuli\Black19.jpg"	"cockroach"	"1"	"eyes"	"1"	"121"	551	4	"0"	3	"1"
2	129	"C:\Experiments\Bartholow Lab\Hannah Volpert\stimuli\Black20.jpg"	"vacation"	"1"	"forehead"	"2"	"112"	538	5	"0"	3	"0"
2	130	"C:\Experiments\Bartholow Lab\Hannah Volpert\stimuli\White5.jpg"	"pest"	"2"	"nose"	"1"	"231"	568	4	"0"	3	"0"
2	131	"C:\Experiments\Bartholow Lab\Hannah Volpert\stimuli\White13.jpg"	"sewage"	"2"	"eyes"	"1"	"221"	572	4	"0"	3	"0"
2	132	"C:\Experiments\Bartholow Lab\Hannah Volpert\stimuli\Black19.jpg"	"disgust"	"1"	"nose"	"1"	"131"	658	4	"0"	3	"1"
2	133	"C:\Experiments\Bartholow Lab\Hannah Volpert\stimuli\White6.jpg"	"beauty"	"2"	"forehead"	"2"	"212"	552	5	"0"	3	"1"
2	134	"C:\Experiments\Bartholow Lab\Hannah Volpert\stimuli\Black9.jpg"	"success"	"1"	"nose"	"2"	"132"	585	5	"0"	3	"0"
2	135	"C:\Experiments\Bartholow Lab\Hannah Volpert\stimuli\Black8.jpg"	"vomit"	"1"	"forehead"	"1"	"111"	578	4	"0"	3	"1"
2	136	"C:\Experiments\Bartholow Lab\Hannah Volpert\stimuli\White3.jpg"	"love"	"2"	"nose"	"2"	"232"	552	5	"0"	3	"1"
2	137	"C:\Experiments\Bartholow Lab\Hannah Volpert\stimuli\White3.jpg"	"romance"	"2"	"eyes"	"2"	"222"	521	5	"0"	3	"1"
2	138	"C:\Experiments\Bartholow Lab\Hannah Volpert\stimuli\Black1.jpg"	"joy"	"1"	"eyes"	"2"	"122"	623	5	"0"	3	"0"
2	139	"C:\Experiments\Bartholow Lab\Hannah Volpert\stimuli\Black3.jpg"	"success"	"1"	"eyes"	"2"	"122"	648	5	"0"	3	"0"
2	140	"C:\Experiments\Bartholow Lab\Hannah Volpert\stimuli\White24.jpg"	"pest"	"2"	"nose"	"1"	"231"	588	4	"0"	3	"0"
2	141	"C:\Experiments\Bartholow Lab\Hannah Volpert\stimuli\Black23.jpg"	"beauty"	"1"	"forehead"	"2"	"112"	645	5	"0"	3	"0"
2	142	"C:\Experiments\Bartholow Lab\Hannah Volpert\stimuli\Black14.jpg"	"smile"	"1"	"nose"	"2"	"132"	792	5	"0"	3	"0"
2	143	"C:\Experiments\Bartholow Lab\Hannah Volpert\stimuli\White1.jpg"	"success"	"2"	"nose"	"2"	"232"	681	5	"0"	3	"1"
2	144	"C:\Experiments\Bartholow Lab\Hannah Volpert\stimuli\Black15.jpg"	"vomit"	"1"	"eyes"	"1"	"121"	693	4	"0"	3	"1"
2	145	"C:\Experiments\Bartholow Lab\Hannah Volpert\stimuli\Black7.jpg"	"joy"	"1"	"forehead"	"2"	"112"	412	5	"0"	3	"0"
2	146	"C:\Experiments\Bartholow Lab\Hannah Volpert\stimuli\White3.jpg"	"poison"	"2"	"nose"	"1"	"231"	546	4	"0"	3	"0"
2	147	"C:\Experiments\Bartholow Lab\Hannah Volpert\stimuli\Black14.jpg"	"vomit"	"1"	"forehead"	"1"	"111"	820.955217946827	4	"0"	3	"1"
2	148	"C:\Experiments\Bartholow Lab\Hannah Volpert\stimuli\White6.jpg"	"smile"	"2"	"eyes"	"2"	"222"	527	5	"0"	3	"1"
2	149	"C:\Experiments\Bartholow Lab\Hannah Volpert\stimuli\White13.jpg"	"paradise"	"2"	"nose"	"2"	"232"	820.955217946827	5	"0"	3	"1"
2	150	"C:\Experiments\Bartholow Lab\Hannah Volpert\stimuli\Black3.jpg"	"vacation"	"1"	"nose"	"2"	"132"	625	5	"0"	3	"0"
2	151	"C:\Experiments\Bartholow Lab\Hannah Volpert\stimuli\Black18.jpg"	"vomit"	"1"	"forehead"	"1"	"111"	546	4	"0"	3	"1"
2	152	"C:\Experiments\Bartholow Lab\Hannah Volpert\stimuli\White13.jpg"	"love"	"2"	"forehead"	"2"	"212"	627	5	"0"	3	"1"
2	153	"C:\Experiments\Bartholow Lab\Hannah Volpert\stimuli\White7.jpg"	"sewage"	"2"	"nose"	"1"	"231"	612	4	"0"	3	"0"
2	154	"C:\Experiments\Bartholow Lab\Hannah Volpert\stimuli\Black6.jpg"	"paradise"	"1"	"forehead"	"2"	"112"	767	5	"0"	3	"0"
2	155	"C:\Experiments\Bartholow Lab\Hannah Volpert\stimuli\Black5.jpg"	"disgust"	"1"	"nose"	"1"	"131"	635	4	"0"	3	"1"
2	156	"C:\Experiments\Bartholow Lab\Hannah Volpert\stimuli\White13.jpg"	"joy"	"2"	"eyes"	"2"	"222"	654	5	"0"	3	"1"
2	157	"C:\Experiments\Bartholow Lab\Hannah Volpert\stimuli\Black24.jpg"	"garbage"	"1"	"eyes"	"1"	"121"	583	4	"0"	3	"1"
2	158	"C:\Experiments\Bartholow Lab\Hannah Volpert\stimuli\White17.jpg"	"despair"	"2"	"nose"	"1"	"231"	820.955217946827	4	"0"	3	"0"
2	159	"C:\Experiments\Bartholow Lab\Hannah Volpert\stimuli\White5.jpg"	"smile"	"2"	"forehead"	"2"	"212"	609	5	"0"	3	"1"
2	160	"C:\Experiments\Bartholow Lab\Hannah Volpert\stimuli\Black22.jpg"	"joy"	"1"	"forehead"	"2"	"112"	509	5	"0"	3	"0"
2	161	"C:\Experiments\Bartholow Lab\Hannah Volpert\stimuli\Black8.jpg"	"smile"	"1"	"forehead"	"2"	"112"	469	5	"0"	3	"0"
2	162	"C:\Experiments\Bartholow Lab\Hannah Volpert\stimuli\White12.jpg"	"success"	"2"	"eyes"	"2"	"222"	548	5	"0"	3	"1"
2	163	"C:\Experiments\Bartholow Lab\Hannah Volpert\stimuli\White18.jpg"	"poison"	"2"	"eyes"	"1"	"221"	570	4	"0"	3	"0"
2	164	"C:\Experiments\Bartholow Lab\Hannah Volpert\stimuli\White20.jpg"	"pest"	"2"	"nose"	"1"	"231"	613	4	"0"	3	"0"
2	165	"C:\Experiments\Bartholow Lab\Hannah Volpert\stimuli\Black21.jpg"	"garbage"	"1"	"forehead"	"1"	"111"	585	4	"0"	3	"1"
2	166	"C:\Experiments\Bartholow Lab\Hannah Volpert\stimuli\White20.jpg"	"cockroach"	"2"	"forehead"	"1"	"211"	570	4	"0"	3	"0"
2	167	"C:\Experiments\Bartholow Lab\Hannah Volpert\stimuli\White6.jpg"	"cockroach"	"2"	"nose"	"1"	"231"	541	4	"0"	3	"0"
2	168	"C:\Experiments\Bartholow Lab\Hannah Volpert\stimuli\Black19.jpg"	"beauty"	"1"	"eyes"	"2"	"122"	540	5	"0"	3	"0"
2	169	"C:\Experiments\Bartholow Lab\Hannah Volpert\stimuli\Black22.jpg"	"smile"	"1"	"eyes"	"2"	"122"	554	5	"0"	3	"0"
2	170	"C:\Experiments\Bartholow Lab\Hannah Volpert\stimuli\White13.jpg"	"poison"	"2"	"forehead"	"1"	"211"	571	4	"0"	3	"0"
2	171	"C:\Experiments\Bartholow Lab\Hannah Volpert\stimuli\Black13.jpg"	"cockroach"	"1"	"eyes"	"1"	"121"	542	4	"0"	3	"1"
2	172	"C:\Experiments\Bartholow Lab\Hannah Volpert\stimuli\White4.jpg"	"paradise"	"2"	"forehead"	"2"	"212"	540	5	"0"	3	"1"
2	173	"C:\Experiments\Bartholow Lab\Hannah Volpert\stimuli\White21.jpg"	"garbage"	"2"	"eyes"	"1"	"221"	656	4	"0"	3	"0"
2	174	"C:\Experiments\Bartholow Lab\Hannah Volpert\stimuli\White5.jpg"	"romance"	"2"	"eyes"	"2"	"222"	598	5	"0"	3	"1"
2	175	"C:\Experiments\Bartholow Lab\Hannah Volpert\stimuli\Black3.jpg"	"poison"	"1"	"nose"	"1"	"131"	602	4	"0"	3	"1"
2	176	"C:\Experiments\Bartholow Lab\Hannah Volpert\stimuli\White24.jpg"	"success"	"2"	"forehead"	"2"	"212"	536	5	"0"	3	"1"
2	177	"C:\Experiments\Bartholow Lab\Hannah Volpert\stimuli\White1.jpg"	"vacation"	"2"	"eyes"	"2"	"222"	612	5	"0"	3	"1"
2	178	"C:\Experiments\Bartholow Lab\Hannah Volpert\stimuli\Black15.jpg"	"poison"	"1"	"forehead"	"1"	"111"	495	4	"0"	3	"1"
2	179	"C:\Experiments\Bartholow Lab\Hannah Volpert\stimuli\White11.jpg"	"cockroach"	"2"	"nose"	"1"	"231"	613	4	"0"	3	"0"
2	180	"C:\Experiments\Bartholow Lab\Hannah Volpert\stimuli\White16.jpg"	"romance"	"2"	"nose"	"2"	"232"	547	5	"0"	3	"1"
2	181	"C:\Experiments\Bartholow Lab\Hannah Volpert\stimuli\White15.jpg"	"paradise"	"2"	"forehead"	"2"	"212"	564	5	"0"	3	"1"
2	182	"C:\Experiments\Bartholow Lab\Hannah Volpert\stimuli\Black4.jpg"	"cockroach"	"1"	"forehead"	"1"	"111"	507	4	"0"	3	"1"
2	183	"C:\Experiments\Bartholow Lab\Hannah Volpert\stimuli\White4.jpg"	"joy"	"2"	"eyes"	"2"	"222"	531	5	"0"	3	"1"
2	184	"C:\Experiments\Bartholow Lab\Hannah Volpert\stimuli\White11.jpg"	"smile"	"2"	"nose"	"2"	"232"	447	5	"0"	3	"1"
2	185	"C:\Experiments\Bartholow Lab\Hannah Volpert\stimuli\White6.jpg"	"garbage"	"2"	"forehead"	"1"	"211"	605	4	"0"	3	"0"
2	186	"C:\Experiments\Bartholow Lab\Hannah Volpert\stimuli\Black9.jpg"	"garbage"	"1"	"nose"	"1"	"131"	635	4	"0"	3	"1"
2	187	"C:\Experiments\Bartholow Lab\Hannah Volpert\stimuli\Black6.jpg"	"garbage"	"1"	"nose"	"1"	"131"	604	4	"0"	3	"1"
2	188	"C:\Experiments\Bartholow Lab\Hannah Volpert\stimuli\White7.jpg"	"vomit"	"2"	"forehead"	"1"	"211"	664	4	"0"	3	"0"
2	189	"C:\Experiments\Bartholow Lab\Hannah Volpert\stimuli\White21.jpg"	"romance"	"2"	"forehead"	"2"	"212"	547	5	"0"	3	"1"
2	190	"C:\Experiments\Bartholow Lab\Hannah Volpert\stimuli\Black21.jpg"	"beauty"	"1"	"forehead"	"2"	"112"	567	5	"0"	3	"0"
2	191	"C:\Experiments\Bartholow Lab\Hannah Volpert\stimuli\Black2.jpg"	"paradise"	"1"	"nose"	"2"	"132"	536	5	"0"	3	"0"
2	192	"C:\Experiments\Bartholow Lab\Hannah Volpert\stimuli\White14.jpg"	"disgust"	"2"	"nose"	"1"	"231"	555	4	"0"	3	"0"
2	193	"C:\Experiments\Bartholow Lab\Hannah Volpert\stimuli\Black17.jpg"	"disgust"	"1"	"nose"	"1"	"131"	506	4	"0"	3	"1"
2	194	"C:\Experiments\Bartholow Lab\Hannah Volpert\stimuli\White18.jpg"	"vomit"	"2"	"forehead"	"1"	"211"	616	4	"0"	3	"0"
2	195	"C:\Experiments\Bartholow Lab\Hannah Volpert\stimuli\Black21.jpg"	"love"	"1"	"eyes"	"2"	"122"	814	5	"0"	3	"0"
2	196	"C:\Experiments\Bartholow Lab\Hannah Volpert\stimuli\Black18.jpg"	"success"	"1"	"forehead"	"2"	"112"	468	5	"0"	3	"0"
2	197	"C:\Experiments\Bartholow Lab\Hannah Volpert\stimuli\Black24.jpg"	"vacation"	"1"	"forehead"	"2"	"112"	472	5	"0"	3	"0"
2	198	"C:\Experiments\Bartholow Lab\Hannah Volpert\stimuli\White19.jpg"	"disgust"	"2"	"nose"	"1"	"231"	619	4	"0"	3	"0"
2	199	"C:\Experiments\Bartholow Lab\Hannah Volpert\stimuli\White14.jpg"	"despair"	"2"	"forehead"	"1"	"211"	543	4	"0"	3	"0"
2	200	"C:\Experiments\Bartholow Lab\Hannah Volpert\stimuli\White8.jpg"	"beauty"	"2"	"eyes"	"2"	"222"	474	5	"0"	3	"1"
2	201	"C:\Experiments\Bartholow Lab\Hannah Volpert\stimuli\White15.jpg"	"love"	"2"	"eyes"	"2"	"222"	507	5	"0"	3	"1"
2	202	"C:\Experiments\Bartholow Lab\Hannah Volpert\stimuli\White1.jpg"	"garbage"	"2"	"forehead"	"1"	"211"	548	4	"0"	3	"0"
2	203	"C:\Experiments\Bartholow Lab\Hannah Volpert\stimuli\Black1.jpg"	"disgust"	"1"	"nose"	"1"	"131"	514	4	"0"	3	"1"
2	204	"C:\Experiments\Bartholow Lab\Hannah Volpert\stimuli\White16.jpg"	"vomit"	"2"	"nose"	"1"	"231"	507	4	"0"	3	"0"
2	205	"C:\Experiments\Bartholow Lab\Hannah Volpert\stimuli\White9.jpg"	"joy"	"2"	"nose"	"2"	"232"	532	5	"0"	3	"1"
2	206	"C:\Experiments\Bartholow Lab\Hannah Volpert\stimuli\Black13.jpg"	"beauty"	"1"	"eyes"	"2"	"122"	546	5	"0"	3	"0"
2	207	"C:\Experiments\Bartholow Lab\Hannah Volpert\stimuli\White7.jpg"	"love"	"2"	"eyes"	"2"	"222"	515	5	"0"	3	"1"
2	208	"C:\Experiments\Bartholow Lab\Hannah Volpert\stimuli\White8.jpg"	"pest"	"2"	"nose"	"1"	"231"	554	4	"0"	3	"0"
2	209	"C:\Experiments\Bartholow Lab\Hannah Volpert\stimuli\White21.jpg"	"poison"	"2"	"nose"	"1"	"231"	544	4	"0"	3	"0"
2	210	"C:\Experiments\Bartholow Lab\Hannah Volpert\stimuli\White7.jpg"	"disgust"	"2"	"eyes"	"1"	"221"	510	4	"0"	3	"0"
2	211	"C:\Experiments\Bartholow Lab\Hannah Volpert\stimuli\Black12.jpg"	"poison"	"1"	"eyes"	"1"	"121"	503	4	"0"	3	"1"
2	212	"C:\Experiments\Bartholow Lab\Hannah Volpert\stimuli\White8.jpg"	"despair"	"2"	"eyes"	"1"	"221"	560	4	"0"	3	"0"
2	213	"C:\Experiments\Bartholow Lab\Hannah Volpert\stimuli\White9.jpg"	"pest"	"2"	"nose"	"1"	"231"	627	4	"0"	3	"0"
2	214	"C:\Experiments\Bartholow Lab\Hannah Volpert\stimuli\Black3.jpg"	"cockroach"	"1"	"eyes"	"1"	"121"	463	4	"0"	3	"1"
2	215	"C:\Experiments\Bartholow Lab\Hannah Volpert\stimuli\White14.jpg"	"vacation"	"2"	"eyes"	"2"	"222"	466	4	"1"	3	"1"
2	216	"C:\Experiments\Bartholow Lab\Hannah Volpert\stimuli\White2.jpg"	"paradise"	"2"	"eyes"	"2"	"222"	611	5	"0"	3	"1"
2	217	"C:\Experiments\Bartholow Lab\Hannah Volpert\stimuli\Black20.jpg"	"paradise"	"1"	"nose"	"2"	"132"	670	5	"0"	3	"0"
2	218	"C:\Experiments\Bartholow Lab\Hannah Volpert\stimuli\White19.jpg"	"cockroach"	"2"	"forehead"	"1"	"211"	490	4	"0"	3	"0"
2	219	"C:\Experiments\Bartholow Lab\Hannah Volpert\stimuli\White5.jpg"	"disgust"	"2"	"forehead"	"1"	"211"	445	4	"0"	3	"0"
2	220	"C:\Experiments\Bartholow Lab\Hannah Volpert\stimuli\White10.jpg"	"garbage"	"2"	"eyes"	"1"	"221"	820.955217946827	4	"0"	3	"0"
2	221	"C:\Experiments\Bartholow Lab\Hannah Volpert\stimuli\White4.jpg"	"success"	"2"	"nose"	"2"	"232"	549	5	"0"	3	"1"
2	222	"C:\Experiments\Bartholow Lab\Hannah Volpert\stimuli\White12.jpg"	"romance"	"2"	"nose"	"2"	"232"	517	5	"0"	3	"1"
2	223	"C:\Experiments\Bartholow Lab\Hannah Volpert\stimuli\Black13.jpg"	"romance"	"1"	"nose"	"2"	"132"	510	5	"0"	3	"0"
2	224	"C:\Experiments\Bartholow Lab\Hannah Volpert\stimuli\Black1.jpg"	"garbage"	"1"	"eyes"	"1"	"121"	484	4	"0"	3	"1"
2	225	"C:\Experiments\Bartholow Lab\Hannah Volpert\stimuli\Black24.jpg"	"cockroach"	"1"	"forehead"	"1"	"111"	651	4	"0"	3	"1"
2	226	"C:\Experiments\Bartholow Lab\Hannah Volpert\stimuli\Black12.jpg"	"success"	"1"	"eyes"	"2"	"122"	465	5	"0"	3	"0"
2	227	"C:\Experiments\Bartholow Lab\Hannah Volpert\stimuli\Black11.jpg"	"joy"	"1"	"nose"	"2"	"132"	570	5	"0"	3	"0"
2	228	"C:\Experiments\Bartholow Lab\Hannah Volpert\stimuli\Black5.jpg"	"garbage"	"1"	"eyes"	"1"	"121"	605	4	"0"	3	"1"
2	229	"C:\Experiments\Bartholow Lab\Hannah Volpert\stimuli\White3.jpg"	"smile"	"2"	"forehead"	"2"	"212"	617	5	"0"	3	"1"
2	230	"C:\Experiments\Bartholow Lab\Hannah Volpert\stimuli\White22.jpg"	"cockroach"	"2"	"eyes"	"1"	"221"	503	4	"0"	3	"0"
2	231	"C:\Experiments\Bartholow Lab\Hannah Volpert\stimuli\Black10.jpg"	"vomit"	"1"	"nose"	"1"	"131"	541	4	"0"	3	"1"
2	232	"C:\Experiments\Bartholow Lab\Hannah Volpert\stimuli\Black6.jpg"	"cockroach"	"1"	"eyes"	"1"	"121"	571	4	"0"	3	"1"
2	233	"C:\Experiments\Bartholow Lab\Hannah Volpert\stimuli\White23.jpg"	"despair"	"2"	"forehead"	"1"	"211"	631	4	"0"	3	"0"
2	234	"C:\Experiments\Bartholow Lab\Hannah Volpert\stimuli\White17.jpg"	"love"	"2"	"forehead"	"2"	"212"	603	5	"0"	3	"1"
2	235	"C:\Experiments\Bartholow Lab\Hannah Volpert\stimuli\Black2.jpg"	"despair"	"1"	"nose"	"1"	"131"	585	4	"0"	3	"1"
2	236	"C:\Experiments\Bartholow Lab\Hannah Volpert\stimuli\Black19.jpg"	"garbage"	"1"	"forehead"	"1"	"111"	671	4	"0"	3	"1"
2	237	"C:\Experiments\Bartholow Lab\Hannah Volpert\stimuli\Black5.jpg"	"vomit"	"1"	"forehead"	"1"	"111"	568	4	"0"	3	"1"
2	238	"C:\Experiments\Bartholow Lab\Hannah Volpert\stimuli\White2.jpg"	"vomit"	"2"	"forehead"	"1"	"211"	569	4	"0"	3	"0"
2	239	"C:\Experiments\Bartholow Lab\Hannah Volpert\stimuli\Black6.jpg"	"success"	"1"	"eyes"	"2"	"122"	525	5	"0"	3	"0"
2	240	"C:\Experiments\Bartholow Lab\Hannah Volpert\stimuli\White20.jpg"	"vacation"	"2"	"eyes"	"2"	"222"	787	5	"0"	3	"1"
2	241	"C:\Experiments\Bartholow Lab\Hannah Volpert\stimuli\Black9.jpg"	"disgust"	"1"	"eyes"	"1"	"121"	596	4	"0"	3	"1"
2	242	"C:\Experiments\Bartholow Lab\Hannah Volpert\stimuli\White11.jpg"	"success"	"2"	"eyes"	"2"	"222"	573	5	"0"	3	"1"
2	243	"C:\Experiments\Bartholow Lab\Hannah Volpert\stimuli\Black22.jpg"	"poison"	"1"	"eyes"	"1"	"121"	533	4	"0"	3	"1"
2	244	"C:\Experiments\Bartholow Lab\Hannah Volpert\stimuli\White19.jpg"	"garbage"	"2"	"eyes"	"1"	"221"	614	4	"0"	3	"0"
2	245	"C:\Experiments\Bartholow Lab\Hannah Volpert\stimuli\Black16.jpg"	"beauty"	"1"	"eyes"	"2"	"122"	581	5	"0"	3	"0"
2	246	"C:\Experiments\Bartholow Lab\Hannah Volpert\stimuli\White4.jpg"	"despair"	"2"	"nose"	"1"	"231"	539	4	"0"	3	"0"
2	247	"C:\Experiments\Bartholow Lab\Hannah Volpert\stimuli\White17.jpg"	"pest"	"2"	"forehead"	"1"	"211"	617	4	"0"	3	"0"
2	248	"C:\Experiments\Bartholow Lab\Hannah Volpert\stimuli\White23.jpg"	"romance"	"2"	"forehead"	"2"	"212"	543	5	"0"	3	"1"
2	249	"C:\Experiments\Bartholow Lab\Hannah Volpert\stimuli\Black12.jpg"	"disgust"	"1"	"nose"	"1"	"131"	509	4	"0"	3	"1"
2	250	"C:\Experiments\Bartholow Lab\Hannah Volpert\stimuli\White7.jpg"	"paradise"	"2"	"nose"	"2"	"232"	614	5	"0"	3	"1"
2	251	"C:\Experiments\Bartholow Lab\Hannah Volpert\stimuli\Black3.jpg"	"pest"	"1"	"forehead"	"1"	"111"	511	4	"0"	3	"1"
2	252	"C:\Experiments\Bartholow Lab\Hannah Volpert\stimuli\White10.jpg"	"vomit"	"2"	"nose"	"1"	"231"	555	4	"0"	3	"0"
2	253	"C:\Experiments\Bartholow Lab\Hannah Volpert\stimuli\White14.jpg"	"vacation"	"2"	"forehead"	"2"	"212"	721	5	"0"	3	"1"
2	254	"C:\Experiments\Bartholow Lab\Hannah Volpert\stimuli\Black6.jpg"	"vacation"	"1"	"nose"	"2"	"132"	596	5	"0"	3	"0"
2	255	"C:\Experiments\Bartholow Lab\Hannah Volpert\stimuli\White20.jpg"	"smile"	"2"	"forehead"	"2"	"212"	629	5	"0"	3	"1"
2	256	"C:\Experiments\Bartholow Lab\Hannah Volpert\stimuli\Black3.jpg"	"love"	"1"	"forehead"	"2"	"112"	561	5	"0"	3	"0"
2	257	"C:\Experiments\Bartholow Lab\Hannah Volpert\stimuli\Black2.jpg"	"smile"	"1"	"forehead"	"2"	"112"	450	5	"0"	3	"0"
2	258	"C:\Experiments\Bartholow Lab\Hannah Volpert\stimuli\Black23.jpg"	"despair"	"1"	"eyes"	"1"	"121"	637	4	"0"	3	"1"
2	259	"C:\Experiments\Bartholow Lab\Hannah Volpert\stimuli\Black14.jpg"	"vacation"	"1"	"forehead"	"2"	"112"	782	5	"0"	3	"0"
2	260	"C:\Experiments\Bartholow Lab\Hannah Volpert\stimuli\White8.jpg"	"garbage"	"2"	"forehead"	"1"	"211"	623	4	"0"	3	"0"
2	261	"C:\Experiments\Bartholow Lab\Hannah Volpert\stimuli\White23.jpg"	"garbage"	"2"	"nose"	"1"	"231"	648	4	"0"	3	"0"
2	262	"C:\Experiments\Bartholow Lab\Hannah Volpert\stimuli\Black16.jpg"	"garbage"	"1"	"forehead"	"1"	"111"	556	4	"0"	3	"1"
2	263	"C:\Experiments\Bartholow Lab\Hannah Volpert\stimuli\Black23.jpg"	"success"	"1"	"eyes"	"2"	"122"	572	5	"0"	3	"0"
